time,seconds_elapsed,z,y,x
1765009585519486500,0.154486572265625,9.619147300720215,1.2203395366668701,0.019142581149935722
1765009585536449800,0.17144970703125,9.602396965026855,1.210768222808838,0.05024927482008934
1765009585553413000,0.1884130859375,9.633503913879395,1.222732424736023,0.014356935396790504
1765009585570376400,0.20537646484375,9.686145782470703,1.246660590171814,-0.004785645287483931
1765009585587339800,0.22233984375,9.681360244750977,1.2394821643829346,-0.040677983313798904
1765009585604303000,0.23930322265625,9.66221809387207,1.2705888748168945,-0.02632104977965355
1765009585621266400,0.256266357421875,9.58325481414795,1.2634103298187256,-0.004785645287483931
1765009585638229800,0.273229736328125,9.628718376159668,1.2394821643829346,-0.01196411345154047
1765009585655193000,0.290193115234375,9.631111145019531,1.2418749332427979,0.014356935396790504
1765009585672156200,0.30715625,9.686145782470703,1.2346965074539185,0
1765009585689119700,0.32411962890625,9.686145782470703,1.2370892763137817,0.004785645287483931
1765009585706083000,0.3410830078125,9.652647018432617,1.2346965074539185,-0.01196411345154047
1765009585723046400,0.35804638671875,9.621540069580078,1.2490534782409668,-0.031106693670153618
1765009585740009700,0.375009765625,9.628718376159668,1.2801600694656372,-0.035892341285943985
1765009585756973000,0.39197314453125,9.645467758178711,1.277767300605774,-0.01196411345154047
1765009585773936000,0.40893603515625,9.657432556152344,1.246660590171814,0
1765009585790899700,0.425899658203125,9.667003631591797,1.2394821643829346,0.004785645287483931
1765009585807862800,0.44286279296875,9.631111145019531,1.2370892763137817,0.0023928226437419653
1765009585824826000,0.459826171875,9.647860527038574,1.2299108505249023,0.02392822690308094
1765009585841789400,0.47678955078125,9.647860527038574,1.2346965074539185,0.019142581149935722
1765009585858753000,0.4937529296875,9.650253295898438,1.246660590171814,0.007178467698395252
1765009585875716400,0.51071630859375,9.647860527038574,1.2418749332427979,-0.02392822690308094
1765009585892679700,0.5276796875,9.678967475891113,1.2394821643829346,-0.01196411345154047
1765009585909642800,0.544642822265625,9.66939640045166,1.2370892763137817,-0.02392822690308094
1765009585926606000,0.561606201171875,9.678967475891113,1.215553879737854,-0.02392822690308094
1765009585943569400,0.5785693359375,9.614361763000488,1.2346965074539185,-0.02632104977965355
1765009585960532700,0.59553271484375,9.643074989318848,1.2538390159606934,-0.02153540402650833
1765009585977496000,0.61249609375,9.633503913879395,1.2849457263946533,-0.007178467698395252
1765009585994459400,0.62945947265625,9.614361763000488,1.2705888748168945,-0.02632104977965355
1765009586011422700,0.646422607421875,9.633503913879395,1.2586246728897095,0.0023928226437419653
1765009586028386300,0.66338623046875,9.640682220458984,1.2538390159606934,0.009571290574967861
1765009586045349600,0.680349609375,9.66939640045166,1.2275179624557495,0.02392822690308094
1765009586062313000,0.69731298828125,9.66939640045166,1.2083754539489746,0.02632104977965355
1765009586079276300,0.7142763671875,9.67657470703125,1.2131611108779907,0.02871387079358101
1765009586096239600,0.731239501953125,9.705288887023926,1.2370892763137817,0.0023928226437419653
1765009586113203000,0.748202880859375,9.67657470703125,1.2729816436767578,-0.009571290574967861
1765009586130166300,0.765166259765625,9.626325607299805,1.2705888748168945,-0.035892341285943985
1765009586147129600,0.782129638671875,9.628718376159668,1.2586246728897095,-0.0526420995593071
1765009586164092700,0.7990927734375,9.643074989318848,1.2538390159606934,-0.0526420995593071
1765009586181056000,0.816055908203125,9.68375301361084,1.215553879737854,-0.04546362906694412
1765009586198019600,0.83301953125,9.702896118164062,1.210768222808838,0.007178467698395252
1765009586214983000,0.84998291015625,9.664610862731934,1.2251251935958862,0.031106693670153618
1765009586231946200,0.8669462890625,9.638289451599121,1.2370892763137817,0.04785645380616188
1765009586248909600,0.88390966796875,9.631111145019531,1.2634103298187256,0.0526420995593071
1765009586265873000,0.900872802734375,9.652647018432617,1.277767300605774,0.03349951654672623
1765009586282836200,0.917836181640625,9.66221809387207,1.275374412536621,-0.004785645287483931
1765009586299799600,0.934799560546875,9.66221809387207,1.2562319040298462,-0.02632104977965355
1765009586316763000,0.951762939453125,9.67657470703125,1.2538390159606934,-0.031106693670153618
1765009586333726200,0.968726318359375,9.659825325012207,1.2562319040298462,-0.016749758273363113
1765009586350689500,0.985689453125,9.626325607299805,1.2658032178878784,0
1765009586367652900,1.00265283203125,9.638289451599121,1.2634103298187256,0.01196411345154047
1765009586384616200,1.0196162109375,9.652647018432617,1.2658032178878784,0.016749758273363113
1765009586401579500,1.03657958984375,9.647860527038574,1.2586246728897095,0.01196411345154047
1765009586418542800,1.05354296875,9.66939640045166,1.2538390159606934,0.01196411345154047
1765009586435506200,1.070506103515625,9.671789169311523,1.2442678213119507,0.02632104977965355
1765009586452469500,1.087469482421875,9.635896682739258,1.2538390159606934,0.007178467698395252
1765009586469432800,1.104432861328125,9.619147300720215,1.2490534782409668,-0.014356935396790504
1765009586486396200,1.121396240234375,9.640682220458984,1.2729816436767578,-0.02153540402650833
1765009586503359700,1.13835986328125,9.645467758178711,1.28255295753479,-0.04546362906694412
1765009586520323000,1.155322998046875,9.657432556152344,1.277767300605774,-0.016749758273363113
1765009586537286400,1.172286376953125,9.674181938171387,1.2490534782409668,0.019142581149935722
1765009586554250500,1.18925048828125,9.664610862731934,1.2370892763137817,0.02392822690308094
1765009586571213000,1.206213134765625,9.623932838439941,1.2083754539489746,-0.02632104977965355
1765009586588176400,1.22317626953125,9.643074989318848,1.2562319040298462,0
1765009586605139700,1.2401396484375,9.659825325012207,1.25144624710083,-0.009571290574967861
1765009586622103000,1.25710302734375,9.66221809387207,1.2394821643829346,-0.0023928226437419653
1765009586639066400,1.27406640625,9.635896682739258,1.2323036193847656,0
1765009586656030000,1.291030029296875,9.619147300720215,1.2251251935958862,0.02153540402650833
1765009586672993300,1.3079931640625,9.633503913879395,1.2394821643829346,0.06939185410737991
1765009586689956600,1.32495654296875,9.645467758178711,1.210768222808838,0.0933200865983963
1765009586706920000,1.341919921875,9.693324089050293,1.1581261157989502,0.06939185410737991
1765009586723883300,1.35888330078125,9.597611427307129,1.1820544004440308,0.07417750358581543
1765009586740846600,1.3758466796875,9.58325481414795,1.153340458869934,0.09092725813388824
1765009586757810000,1.392809814453125,9.547362327575684,1.1581261157989502,0.04546362906694412
1765009586774773200,1.409773193359375,9.597611427307129,1.1461620330810547,0.01196411345154047
1765009586791736600,1.426736572265625,9.652647018432617,1.1413763761520386,-0.004785645287483931
1765009586808700200,1.4437001953125,9.693324089050293,1.1509476900100708,0.02392822690308094
1765009586825663500,1.46066357421875,9.516255378723145,1.098305583000183,-0.02153540402650833
1765009586842626800,1.477626708984375,9.521040916442871,1.0863415002822876,-0.062213387340307236
1765009586859590100,1.494590087890625,9.638289451599121,1.0791629552841187,-0.0023928226437419653
1765009586876553500,1.511553466796875,9.7938232421875,0.9547362327575684,-0.0023928226437419653
1765009586893516800,1.528516845703125,9.762716293334961,0.8087740540504456,-0.019142581149935722
1765009586910480400,1.54548046875,9.755537986755371,0.8111668825149536,-0.02632104977965355
1765009586927443700,1.562443603515625,9.741181373596191,0.7896314859390259,0.01196411345154047
1765009586944407000,1.579406982421875,9.621540069580078,0.7872386574745178,0.05503492057323456
1765009586961370400,1.596370361328125,9.717252731323242,0.7322037220001221,-0.02871387079358101
1765009586978333700,1.613333740234375,9.609575271606445,0.6221339106559753,-0.05024927482008934
1765009586995297300,1.63029736328125,9.66939640045166,0.5144568681716919,-0.064606212079525
1765009587012260600,1.647260498046875,9.80100154876709,0.43549370765686035,0.05024927482008934
1765009587029224000,1.664223876953125,9.848857879638672,0.3732803463935852,0.035892341285943985
1765009587046187300,1.681187255859375,9.729216575622559,0.3756731450557709,-0.04546362906694412
1765009587063150600,1.698150634765625,9.789037704467773,0.3086741268634796,-0.062213387340307236
1765009587080114000,1.715114013671875,9.626325607299805,0.3206382393836975,-0.08853443711996078
1765009587097077500,1.732077392578125,9.614361763000488,0.3326023519039154,-0.04307080805301666
1765009587114040800,1.749040771484375,9.489934921264648,0.33499518036842346,0.1698904037475586
1765009587131004200,1.766004150390625,9.468399047851562,-0.11246266216039658,-0.06939185410737991
1765009587147967500,1.782967529296875,9.549755096435547,-0.12203395366668701,0.32303106784820557
1765009587164931000,1.79993115234375,9.56650447845459,-0.13639089465141296,0.4378865361213684
1765009587181894400,1.816894287109375,9.442078590393066,-0.32303106784820557,0.3517449200153351
1765009587198857700,1.833857666015625,9.824930191040039,-0.5575276613235474,0.16749759018421173
1765009587215821000,1.850821044921875,10.006784439086914,-0.6125625967979431,-0.30149564146995544
1765009587232784600,1.86778466796875,10.207781791687012,-0.3732803463935852,-0.8015955686569214
1765009587249748000,1.884748046875,10.119247436523438,-0.38285163044929504,-1.069591760635376
1765009587266711300,1.901711181640625,9.848857879638672,-0.6628118753433228,-1.0839486122131348
1765009587283674600,1.918674560546875,9.93260669708252,-0.727418065071106,-0.519242525100708
1765009587300638200,1.93563818359375,9.853643417358398,-0.885344386100769,-0.02153540402650833
1765009587317601500,1.9526015625,9.990034103393555,-1.0552347898483276,0.3684946894645691
1765009587334564900,1.96956494140625,9.80100154876709,-1.1222338676452637,0.363709032535553
1765009587351528200,1.986528076171875,9.803394317626953,-0.9571290612220764,0.2153540402650833
1765009587368491800,2.00349169921875,9.621540069580078,-0.6939185857772827,-0.13878370821475983
1765009587385455000,2.020455078125,9.611968994140625,-0.5886343717575073,-0.3038884699344635
1765009587402418400,2.03741845703125,9.678967475891113,-0.672383189201355,-0.23210379481315613
1765009587419381800,2.0543818359375,9.741181373596191,-0.7704889178276062,-0.04546362906694412
1765009587436345300,2.071345458984375,9.748359680175781,-0.916451096534729,-0.1052841991186142
1765009587453308700,2.08830859375,9.896714210510254,-0.9643075466156006,-0.01196411345154047
1765009587470272000,2.10527197265625,9.853643417358398,-0.9188438653945923,0.11724831163883209
1765009587487235600,2.122235595703125,9.724431037902832,-0.9260223507881165,0.0933200865983963
1765009587504199000,2.139198974609375,9.860821723937988,-0.8877372145652771,0.07657032459974289
1765009587521162200,2.156162353515625,10.320243835449219,-0.8111668825149536,0.059820566326379776
1765009587538125600,2.17312548828125,10.37767219543457,-0.8422735929489136,-0.5862415432929993
1765009587555089200,2.190089111328125,9.693324089050293,-0.48574298620224,-0.6843472719192505
1765009587572052500,2.207052490234375,9.688538551330566,-0.33738797903060913,-0.2919243574142456
1765009587589015800,2.224015869140625,9.343972206115723,-0.27756741642951965,0.11246266216039658
1765009587605979400,2.2409794921875,9.513862609863281,-0.28953152894973755,0.1986042857170105
1765009587622942700,2.257942626953125,9.863214492797852,-0.031106693670153618,0.2153540402650833
1765009587639906000,2.274906005859375,10.437492370605469,0.22492532432079315,0.17706887423992157
1765009587656869600,2.29186962890625,10.767702102661133,0.2392822653055191,0.12681959569454193
1765009587673833000,2.3088330078125,10.576275825500488,0.13639089465141296,0.08614161610603333
1765009587690796300,2.32579638671875,9.91825008392334,0.23688943684101105,-0.031106693670153618
1765009587707759600,2.342759521484375,9.262616157531738,0.6101697683334351,-0.019142581149935722
1765009587724723200,2.35972314453125,8.81515884399414,1.0169496536254883,0.1052841991186142
1765009587741686500,2.3766865234375,8.640482902526855,1.2538390159606934,0.08374879509210587
1765009587758649900,2.39364990234375,9.164510726928711,1.5242279767990112,0.11485548317432404
1765009587775613400,2.410613525390625,9.951749801635742,1.552941918373108,0.0526420995593071
1765009587792576800,2.42757666015625,10.188638687133789,1.3040883541107178,-0.040677983313798904
1765009587809540000,2.4445400390625,9.903892517089844,1.3615161180496216,0.24406790733337402
1765009587826503700,2.461503662109375,9.616754531860352,1.5002998113632202,0.43549370765686035
1765009587843467000,2.478467041015625,9.422935485839844,1.5002998113632202,0.37806597352027893
1765009587860430300,2.495430419921875,9.396614074707031,1.674975872039795,0.38285163044929504
1765009587877394000,2.512393798828125,9.556933403015137,1.8305093050003052,0.31824541091918945
1765009587894357200,2.529357177734375,9.363115310668945,2.062613010406494,0.0933200865983963
1765009587911320600,2.546320556640625,9.34875774383545,2.155933141708374,0.06699903309345245
1765009587928284200,2.5632841796875,9.286544799804688,2.1894326210021973,0.07417750358581543
1765009587945247500,2.58024755859375,9.571290969848633,2.3545374870300293,0.01196411345154047
1765009587962210800,2.5972109375,9.67657470703125,2.3186452388763428,-0.035892341285943985
1765009587979174400,2.61417431640625,9.762716293334961,2.2372891902923584,0.06939185410737991
1765009587996137700,2.6311376953125,9.564111709594727,2.3856441974639893,0.1986042857170105
1765009588013101000,2.64810107421875,9.176474571228027,2.4981069564819336,0.1986042857170105
1765009588030064600,2.665064697265625,8.920442581176758,2.562713146209717,0.20338992774486542
1765009588047028000,2.682028076171875,9.011369705200195,2.66560435295105,0.23449662327766418
1765009588063991300,2.6989912109375,9.21715259552002,2.830709218978882,0.3278166949748993
1765009588080955000,2.715954833984375,10.145567893981934,3.043670415878296,0.14835500717163086
1765009588097918200,2.732918212890625,9.688538551330566,2.825923442840576,-0.0023928226437419653
1765009588114881500,2.749881591796875,9.047262191772461,2.816352367401123,0
1765009588131845000,2.76684521484375,8.652446746826172,3.0029923915863037,0.17706887423992157
1765009588148808400,2.783808349609375,8.477770805358887,3.170490026473999,0.3158525824546814
1765009588165772000,2.80077197265625,8.551948547363281,3.321237802505493,0.33738797903060913
1765009588182735400,2.8177353515625,8.609375953674316,3.38105845451355,0.2584248483181
1765009588199698700,2.83469873046875,8.669196128845215,3.3882367610931396,0.15553347766399384
1765009588216662300,2.851662353515625,8.80798053741455,3.311666488647461,0.16749759018421173
1765009588233625600,2.86862548828125,8.884550094604492,3.335594654083252,0.3086741268634796
1765009588250589000,2.8855888671875,9.008976936340332,3.2685956954956055,0.31345975399017334
1765009588267552500,2.902552490234375,8.85344409942627,3.2207393646240234,0.2632105052471161
1765009588284515800,2.919515869140625,8.72901725769043,3.108276605606079,0.2632105052471161
1765009588301479400,2.9364794921875,8.709874153137207,3.0963125228881836,0.2799602448940277
1765009588318442800,2.95344287109375,8.669196128845215,3.014956474304199,0.20578274130821228
1765009588335406000,2.970406005859375,8.403593063354492,2.7637102603912354,0.2225325107574463
1765009588352369700,2.98736962890625,8.994620323181152,2.586641311645508,0.2871387302875519
1765009588369333000,3.0043330078125,9.779465675354004,2.4287149906158447,0.28235307335853577
1765009588386296300,3.02129638671875,10.222138404846191,2.4023938179016113,0.23210379481315613
1765009588403260000,3.038260009765625,9.930213928222656,2.115255117416382,0.18903298676013947
1765009588420223200,3.05522314453125,9.609575271606445,1.8448662757873535,0.2799602448940277
1765009588437186800,3.072186767578125,9.432506561279297,1.6821542978286743,0.32542386651039124
1765009588454150100,3.089150146484375,9.755537986755371,1.6295121908187866,0.22971096634864807
1765009588471113700,3.10611376953125,10.107282638549805,1.550549030303955,0.05503492057323456
1765009588488077000,3.1230771484375,10.016355514526367,1.423729419708252,-0.22971096634864807
1765009588505040400,3.140040283203125,9.741181373596191,1.4715858697891235,-0.36610186100006104
1765009588522004000,3.15700390625,9.678967475891113,1.337587833404541,-0.4331009089946747
1765009588538967300,3.17396728515625,9.489934921264648,1.0336993932724,-0.18424734473228455
1765009588555931000,3.190930908203125,9.475577354431152,0.8063812255859375,0.031106693670153618
1765009588572894200,3.207894287109375,9.461220741271973,0.7561319470405579,0.09571290761232376
1765009588589857800,3.22485791015625,9.772287368774414,0.6293123364448547,0.16749759018421173
1765009588606821000,3.241821044921875,9.920642852783203,0.5742774605751038,0.4091726839542389
1765009588623784400,3.258784423828125,9.623932838439941,0.4498506486415863,0.09571290761232376
1765009588640748000,3.275748046875,9.714859962463379,0.02392822690308094,-0.17706887423992157
1765009588657711400,3.29271142578125,9.681360244750977,-0.26081767678260803,-0.31824541091918945
1765009588674675000,3.309675048828125,9.571290969848633,-0.3613162338733673,-0.6675975322723389
1765009588691638300,3.32663818359375,9.480362892150879,-0.2632105052471161,-0.8949156403541565
1765009588708601600,3.3436015625,9.870393753051758,-0.35892340540885925,-0.6173482537269592
1765009588725565200,3.360565185546875,10.080962181091309,-0.4785645306110382,0.08853443711996078
1765009588742528500,3.377528564453125,10.097711563110352,-0.8470591902732849,0.43549370765686035
1765009588759492000,3.3944921875,10.207781791687012,-1.057627558708191,0.6340979933738708
1765009588776455400,3.411455322265625,9.891928672790527,-1.160519003868103,0.2919243574142456
1765009588793419000,3.4284189453125,9.757930755615234,-1.0193424224853516,0.1986042857170105
1765009588810382300,3.44538232421875,9.659825325012207,-0.7896314859390259,0.01196411345154047
1765009588827346000,3.462345947265625,9.56889820098877,-0.914058268070221,-0.05742774158716202
1765009588844309200,3.479309326171875,9.693324089050293,-0.9571290612220764,0.27038896083831787
1765009588861272600,3.4962724609375,9.573683738708496,-1.0887342691421509,0.3445664644241333
1765009588878236200,3.513236083984375,9.671789169311523,-1.28255295753479,0.31106695532798767
1765009588895199700,3.53019970703125,9.865608215332031,-1.5242279767990112,0.3397808074951172
1765009588912163000,3.5471630859375,9.9469633102417,-1.643869161605835,0.2512463629245758
1765009588929126400,3.56412646484375,10.05703353881836,-1.6558332443237305,0.1746760457754135
1765009588946090000,3.581090087890625,9.863214492797852,-1.5792629718780518,-0.11246266216039658
1765009588963053300,3.59805322265625,9.743574142456055,-1.459621787071228,-0.24646073579788208
1765009588980017000,3.615016845703125,9.765109062194824,-1.466800332069397,-0.42831525206565857
1765009588996980200,3.631980224609375,9.954142570495605,-1.3854442834854126,-0.2679961323738098
1765009589013943800,3.64894384765625,9.937392234802246,-1.3950155973434448,-0.040677983313798904
1765009589030907100,3.6659072265625,9.750752449035645,-1.4452649354934692,0.09092725813388824
1765009589047870700,3.68287060546875,9.695717811584473,-1.3351950645446777,0.2584248483181
1765009589064834000,3.699833984375,9.738788604736328,-1.2323036193847656,0.2727817893028259
1765009589081797600,3.716797607421875,9.513862609863281,-1.0911271572113037,0.14356936514377594
1765009589098761000,3.733760986328125,9.626325607299805,-1.0504491329193115,0.038285162299871445
1765009589115724300,3.750724365234375,9.724431037902832,-0.8973084688186646,0.1052841991186142
1765009589132688000,3.76768798828125,9.860821723937988,-0.8662018179893494,-0.007178467698395252
1765009589149651500,3.7846513671875,9.934999465942383,-0.8398807644844055,-0.1579262912273407
1765009589166614800,3.80161474609375,10.12881851196289,-0.7968099117279053,-0.16749759018421173
1765009589183578400,3.818578369140625,10.107282638549805,-0.7800601720809937,-0.2273181527853012
1765009589200541700,3.835541748046875,9.930213928222656,-0.5790630578994751,-0.21774685382843018
1765009589217505000,3.852505126953125,9.767501831054688,-0.275174617767334,-0.031106693670153618
1765009589234468600,3.869468505859375,9.755537986755371,-0.19142581522464752,0.11964113265275955
1765009589251432200,3.88643212890625,9.738788604736328,-0.04785645380616188,0.23449662327766418
1765009589268395500,3.9033955078125,10.03310489654541,0.05024927482008934,0.1459621787071228
1765009589285359000,3.920359130859375,10.329814910888672,0.1579262912273407,0.05024927482008934
1765009589302322400,3.937322509765625,10.126425743103027,0.5407779216766357,-0.019142581149935722
1765009589319285800,3.95428564453125,9.69093132019043,0.6149554252624512,0.28235307335853577
1765009589336249300,3.971249267578125,9.336793899536133,0.6891329288482666,0.48095735907554626
1765009589353212700,3.988212646484375,9.150154113769531,1.2610175609588623,0.6293123364448547
1765009589370176300,4.00517626953125,9.497113227844238,1.521835207939148,0.4163511395454407
1765009589387139800,4.022139892578125,9.597611427307129,1.459621787071228,0.04546362906694412
1765009589404103200,4.039103271484375,9.937392234802246,1.4811571836471558,-0.12921242415905
1765009589421066800,4.056066650390625,9.817750930786133,1.8161523342132568,0.04546362906694412
1765009589438030000,4.073030029296875,9.214759826660156,1.9166508913040161,-0.05024927482008934
1765009589454993400,4.089993408203125,8.994620323181152,2.0650060176849365,0.14117653667926788
1765009589471957000,4.10695703125,9.138189315795898,2.2779672145843506,0.42352959513664246
1765009589488920600,4.123920654296875,9.45882797241211,2.368894338607788,0.4307080805301666
1765009589505884000,4.1408837890625,9.631111145019531,2.366501569747925,0.3565305769443512
1765009589522847500,4.157847412109375,9.623932838439941,2.548356056213379,0.2679961323738098
1765009589539810800,4.174810791015625,9.535398483276367,2.6536402702331543,0.08374879509210587
1765009589556774400,4.1917744140625,9.351150512695312,2.7804598808288574,0.05503492057323456
1765009589573737700,4.20873779296875,9.418149948120117,3.005385160446167,0.12921242415905
1765009589590701300,4.225701416015625,9.068798065185547,3.139383316040039,0.19381862878799438
1765009589607664600,4.24266455078125,8.86780071258545,3.3236305713653564,0.4977070987224579
1765009589624628200,4.259628173828125,8.776873588562012,3.414557933807373,0.7800601720809937
1765009589641591600,4.276591552734375,8.745766639709473,3.570091485977173,0.9308080077171326
1765009589658555100,4.29355517578125,8.834300994873047,3.641875982284546,0.9236295223236084
1765009589675518500,4.3105185546875,9.018548965454102,3.7232320308685303,0.9523434042930603
1765009589692482000,4.32748193359375,9.152546882629395,3.7471601963043213,0.8997012972831726
1765009589709445400,4.3444453125,9.162117958068848,3.8524444103240967,0.7537391185760498
1765009589726409000,4.361408935546875,9.090332984924316,3.9385859966278076,0.6652047038078308
1765009589743372500,4.37837255859375,8.757730484008789,4.1419758796691895,0.49292147159576416
1765009589760336000,4.3953359375,8.123632431030273,4.1659040451049805,0.24167509377002716
1765009589777299500,4.412299560546875,7.750352382659912,4.357329845428467,0.44745782017707825
1765009589794262800,4.4292626953125,7.5565338134765625,4.642076015472412,0.5647061467170715
1765009589811226400,4.446226318359375,7.915457248687744,4.845465660095215,0.6604190468788147
1765009589828189700,4.463189697265625,8.023134231567383,4.716253280639648,0.5694918036460876
1765009589845153300,4.4801533203125,8.171489715576172,4.400400638580322,0.5982056856155396
1765009589862116600,4.49711669921875,8.128418922424316,4.35254430770874,0.7680960893630981
1765009589879080200,4.514080078125,7.944170951843262,4.206582069396973,0.6532405614852905
1765009589896043500,4.53104345703125,7.968099594116211,4.015156269073486,0.5431707501411438
1765009589913007000,4.548007080078125,8.178668022155762,4.058227062225342,0.4043870270252228
1765009589929970400,4.564970458984375,9.487542152404785,4.187439441680908,0.29431718587875366
1765009589946934000,4.58193408203125,9.367900848388672,3.9696927070617676,0.2392822653055191
1765009589963897600,4.598897705078125,9.243474006652832,3.603590965270996,0.3158525824546814
1765009589980861000,4.61586083984375,8.678768157958984,3.342773199081421,0.42831525206565857
1765009589997824500,4.632824462890625,7.910671710968018,3.2853455543518066,0.760917603969574
1765009590014787800,4.649787841796875,7.618747234344482,3.2614171504974365,0.9858429431915283
1765009590031751400,4.66675146484375,8.070990562438965,2.926422119140625,0.851844847202301
1765009590048714800,4.68371484375,8.863015174865723,2.5363919734954834,0.6675975322723389
1765009590065678300,4.70067822265625,9.93978500366211,2.431107759475708,0.5886343717575073
1765009590082642000,4.717641845703125,11.157732009887695,2.179861545562744,0.4378865361213684
1765009590099605200,4.734605224609375,11.418549537658691,1.911865234375,0.24885354936122894
1765009590116568800,4.75156884765625,10.932806968688965,1.765903115272522,0.05742774158716202
1765009590133532200,4.7685322265625,10.202995300292969,1.6941183805465698,0.04785645380616188
1765009590150495700,4.785495849609375,9.401400566101074,1.7060825824737549,0
1765009590167459000,4.802458984375,8.839086532592773,1.7515461444854736,0.13639089465141296
1765009590184422700,4.819422607421875,8.86062240600586,2.1128623485565186,0.34695929288864136
1765009590201386000,4.836385986328125,9.44447135925293,1.954936146736145,0.2727817893028259
1765009590218349600,4.853349609375,10.04985523223877,1.545763373374939,0.2727817893028259
1765009590235313000,4.87031298828125,10.296316146850586,1.34476637840271,0.2560320198535919
1765009590252276500,4.8872763671875,10.104889869689941,1.2586246728897095,0.20578274130821228
1765009590269240000,4.904239990234375,9.731609344482422,1.0767701864242554,0.21774685382843018
1765009590286203400,4.921203369140625,9.425328254699707,1.0049854516983032,0.22013968229293823
1765009590303167000,4.9381669921875,9.425328254699707,1.069591760635376,0.1579262912273407
1765009590320130300,4.95513037109375,9.595218658447266,1.1653046607971191,0.038285162299871445
1765009590337094000,4.972093994140625,9.77707290649414,1.1078768968582153,-0.04307080805301666
1765009590354057200,4.98905712890625,9.710074424743652,1.093519926071167,-0.07417750358581543
1765009590371020800,5.006020751953125,9.585647583007812,1.1030912399291992,0.1698904037475586
1765009590387984400,5.022984375,9.580862045288086,0.7657032608985901,0.4785645306110382
1765009590404947700,5.03994775390625,9.834501266479492,0.9475577473640442,0.4570291340351105
1765009590421911300,5.056911376953125,9.9469633102417,0.9427721500396729,0.22013968229293823
1765009590438874600,5.07387451171875,9.851250648498535,0.8638089895248413,0.07417750358581543
1765009590455838200,5.090838134765625,9.784252166748047,0.8183453679084778,0.062213387340307236
1765009590472801500,5.107801513671875,9.767501831054688,0.8159525394439697,0.12681959569454193
1765009590489765000,5.12476513671875,9.762716293334961,0.794417142868042,0.15553347766399384
1765009590506728700,5.141728759765625,9.762716293334961,0.7345965504646301,0.17706887423992157
1765009590523692000,5.158692138671875,9.834501266479492,0.6436693072319031,0.2105683982372284
1765009590540655600,5.175655517578125,9.903892517089844,0.5982056856155396,0.20817556977272034
1765009590557619000,5.192618896484375,10.021141052246094,0.5551348328590393,0.17946170270442963
1765009590574582500,5.20958251953125,10.06421184539795,0.5335994362831116,0.08614161610603333
1765009590591545900,5.2265458984375,9.968499183654785,0.6269195079803467,0.04307080805301666
1765009590608509400,5.243509521484375,9.80817985534668,0.7896314859390259,0.09092725813388824
1765009590625473000,5.26047314453125,9.614361763000488,0.9284151792526245,0.16031911969184875
1765009590642436400,5.277436279296875,9.34157943725586,1.0480563640594482,0.17228323221206665
1765009590659400000,5.29439990234375,9.164510726928711,1.1892328262329102,0.16031911969184875
1765009590676363300,5.31136328125,9.205188751220703,1.2562319040298462,0.08135596662759781
1765009590693326800,5.328326904296875,9.399007797241211,1.2370892763137817,-0.031106693670153618
1765009590710290400,5.34529052734375,9.66939640045166,1.1581261157989502,-0.02871387079358101
1765009590727253800,5.362253662109375,9.865608215332031,1.031306505203247,0.04307080805301666
1765009590744217300,5.37921728515625,9.927821159362793,0.9236295223236084,0.1818545162677765
1765009590761180700,5.3961806640625,9.896714210510254,0.8757730722427368,0.3158525824546814
1765009590778144300,5.413144287109375,9.798608779907227,0.9020941257476807,0.3565305769443512
1765009590795107800,5.43010791015625,9.760323524475098,0.9762716293334961,0.35413774847984314
1765009590812071200,5.4470712890625,9.856036186218262,1.0504491329193115,0.27038896083831787
1765009590829034800,5.46403466796875,10.037891387939453,1.1054840087890625,0.15553347766399384
1765009590845998300,5.480998291015625,10.279565811157227,1.1461620330810547,0.07657032459974289
1765009590862961700,5.497961669921875,10.394421577453613,1.1772687435150146,0.04307080805301666
1765009590879925200,5.51492529296875,10.313065528869629,1.215553879737854,-0.004785645287483931
1765009590896888600,5.531888671875,10.009177207946777,1.337587833404541,-0.11006984114646912
1765009590913852200,5.54885205078125,9.671789169311523,1.6199408769607544,-0.12681959569454193
1765009590930815500,5.5658154296875,9.58325481414795,2.014756679534912,-0.05742774158716202
1765009590947779000,5.582779052734375,9.32004451751709,2.313859462738037,-0.08135596662759781
1765009590964742700,5.59974267578125,9.05444049835205,2.4837498664855957,-0.14117653667926788
1765009590981706000,5.6167060546875,8.86062240600586,2.6368906497955322,-0.11724831163883209
1765009590998669600,5.633669677734375,8.796015739440918,2.785245656967163,0.019142581149935722
1765009591015633200,5.650633056640625,8.752944946289062,2.8929226398468018,0.10049854964017868
1765009591032596500,5.667596435546875,8.752944946289062,2.926422119140625,0.12921242415905
1765009591049560000,5.68456005859375,8.834300994873047,2.981456995010376,0.1818545162677765
1765009591066523400,5.7015234375,8.980263710021973,3.067598581314087,0.2105683982372284
1765009591083487000,5.718487060546875,9.298508644104004,3.1417760848999023,0.18903298676013947
1765009591100450600,5.735450439453125,9.501898765563965,3.1752755641937256,0.1339980661869049
1765009591117414000,5.752413818359375,9.487542152404785,3.1561331748962402,0.04307080805301666
1765009591134377500,5.76937744140625,9.418149948120117,3.1752755641937256,0.016749758273363113
1765009591151340800,5.7863408203125,9.183652877807617,3.2709884643554688,-0.004785645287483931
1765009591168304400,5.803304443359375,9.018548965454102,3.335594654083252,-0.0526420995593071
1765009591185268000,5.82026806640625,8.882157325744629,3.469592809677124,-0.038285162299871445
1765009591202231300,5.837231201171875,8.774480819702148,3.6681971549987793,-0.007178467698395252
1765009591219195000,5.85419482421875,8.884550094604492,3.902693748474121,-0.014356935396790504
1765009591236158500,5.871158447265625,8.831908226013184,4.089334011077881,-0.07178468257188797
1765009591253121800,5.888121826171875,8.71226692199707,4.130012035369873,-0.11006984114646912
1765009591270085400,5.90508544921875,8.432307243347168,4.168296813964844,-0.02632104977965355
1765009591287049000,5.922049072265625,8.437092781066895,4.249652862548828,0.05024927482008934
1765009591304012300,5.93901220703125,8.374878883361816,4.275974273681641,0.13160525262355804
1765009591320976000,5.955975830078125,8.707481384277344,4.402793884277344,0.15314064919948578
1765009591337939200,5.972939208984375,8.518448829650879,4.433900356292725,0.02871387079358101
1765009591354902800,5.98990283203125,8.616554260253906,4.453042984008789,-0.1052841991186142
1765009591371866400,6.006866455078125,8.58784008026123,4.524827480316162,-0.08135596662759781
1765009591388829700,6.02382958984375,8.549555778503418,4.5583271980285645,-0.05742774158716202
1765009591405793300,6.040793212890625,8.358129501342773,4.555934429168701,-0.14356936514377594
1765009591422756900,6.0577568359375,8.300702095031738,4.589433670043945,-0.06939185410737991
1765009591439720200,6.07472021484375,8.288737297058105,4.54636287689209,0.06699903309345245
1765009591456683800,6.091683837890625,8.25523853302002,4.457828521728516,0.1866401731967926
1765009591473647000,6.108647216796875,8.288737297058105,4.388436794281006,0.24646073579788208
1765009591490610700,6.125610595703125,8.50169849395752,4.376472473144531,0.27038896083831787
1765009591507574300,6.14257421875,8.461020469665527,4.342973232269287,0.1052841991186142
1765009591524537900,6.159537841796875,8.425128936767578,4.292723655700684,-0.007178467698395252
1765009591541501200,6.176501220703125,8.25523853302002,4.275974273681641,-0.009571290574967861
1765009591558464800,6.19346484375,8.085348129272461,4.247260093688965,-0.01196411345154047
1765009591575428000,6.210427978515625,8.001599311828613,4.120440483093262,-0.019142581149935722
1765009591592391700,6.2273916015625,8.087740898132324,3.9864425659179688,-0.016749758273363113
1765009591609355300,6.244355224609375,8.248059272766113,3.845266103744507,-0.10289137065410614
1765009591626318600,6.261318603515625,8.733802795410156,3.6323046684265137,-0.09571290761232376
1765009591643282200,6.2782822265625,9.116654396057129,3.4169507026672363,-0.15074782073497772
1765009591660245800,6.295245849609375,9.573683738708496,3.115455150604248,-0.19621145725250244
1765009591677209000,6.312208984375,9.836894035339355,2.8522446155548096,-0.11724831163883209
1765009591694172700,6.329172607421875,10.116853713989258,2.447857618331909,-0.08374879509210587
1765009591711136300,6.34613623046875,10.226923942565918,2.1750757694244385,-0.07657032459974289
1765009591728099600,6.363099609375,10.408778190612793,1.9381862878799438,0.06699903309345245
1765009591745063200,6.380063232421875,10.262816429138184,1.765903115272522,0.15314064919948578
1765009591762026500,6.397026611328125,9.973284721374512,1.6701902151107788,0.23449662327766418
1765009591778990000,6.413989990234375,9.58325481414795,1.6917256116867065,0.17706887423992157
1765009591795953700,6.43095361328125,9.415757179260254,1.801795482635498,0.17228323221206665
1765009591812917000,6.4479169921875,9.425328254699707,1.9381862878799438,0.16271193325519562
1765009591829880600,6.464880615234375,9.523433685302734,1.9692929983139038,0.12921242415905
1765009591846844200,6.48184423828125,9.635896682739258,1.9094724655151367,0.02632104977965355
1765009591863807500,6.498807373046875,9.616754531860352,1.825723648071289,-0.0023928226437419653
1765009591880771000,6.51577099609375,9.616754531860352,1.6869399547576904,0.08614161610603333
1765009591897734700,6.532734619140625,9.614361763000488,1.581655740737915,0.07896314561367035
1765009591914698000,6.549697998046875,9.633503913879395,1.5170495510101318,0.0023928226437419653
1765009591931661600,6.56666162109375,9.686145782470703,1.5433706045150757,0.02392822690308094
1765009591948625200,6.583625244140625,9.712467193603516,1.5553346872329712,0.059820566326379776
1765009591965588500,6.60058837890625,9.674181938171387,1.5170495510101318,0.05503492057323456
1765009591982552000,6.617552001953125,9.688538551330566,1.4739787578582764,-0.014356935396790504
1765009591999515400,6.634515380859375,9.686145782470703,1.4452649354934692,0.004785645287483931
1765009592016479000,6.65147900390625,9.68375301361084,1.4620146751403809,-0.07896314561367035
1765009592033442600,6.668442626953125,9.66221809387207,1.490728497505188,-0.20578274130821228
1765009592050406000,6.685406005859375,9.657432556152344,1.5050854682922363,-0.26081767678260803
1765009592067369500,6.702369384765625,9.585647583007812,1.5194423198699951,-0.1579262912273407
1765009592084332800,6.719332763671875,9.497113227844238,1.5553346872329712,-0.0526420995593071
1765009592101296400,6.73629638671875,9.485149383544922,1.4739787578582764,0.02632104977965355
1765009592118260000,6.753260009765625,9.533005714416504,1.399801254272461,-0.004785645287483931
1765009592135223300,6.770223388671875,9.659825325012207,1.332802176475525,-0.03349951654672623
1765009592152187000,6.787186767578125,9.741181373596191,1.3399807214736938,-0.07178468257188797
1765009592169150500,6.804150390625,9.640682220458984,1.3399807214736938,-0.2105683982372284
1765009592186113800,6.82111376953125,9.389435768127441,1.2203395366668701,-0.5862415432929993
1765009592203077400,6.838077392578125,9.45882797241211,1.031306505203247,-0.4953143000602722
1765009592220041000,6.855041015625,9.755537986755371,1.3663017749786377,0.10049854964017868
1765009592237004300,6.87200439453125,9.817750930786133,1.6941183805465698,0.31345975399017334
1765009592253968000,6.8889677734375,9.497113227844238,1.7084753513336182,-0.007178467698395252
1765009592270931200,6.90593115234375,9.207581520080566,1.576870083808899,-0.41156548261642456
1765009592287894800,6.922894775390625,9.245866775512695,1.3280165195465088,-0.5934200286865234
1765009592304858400,6.9398583984375,9.109476089477539,0.8638089895248413,-0.6460621356964111
1765009592321821700,6.95682177734375,9.035298347473145,0.5838487148284912,-0.5910272002220154
1765009592338785300,6.973785400390625,9.315258979797363,0.6269195079803467,-0.3158525824546814
1765009592355748900,6.990748779296875,9.803394317626953,0.97148597240448,-0.28953152894973755
1765009592372712200,7.007712158203125,10.061819076538086,1.2323036193847656,-0.6819544434547424
1765009592389675800,7.02467578125,10.054640769958496,1.275374412536621,-1.28255295753479
1765009592406639000,7.04163916015625,9.822537422180176,1.526620864868164,-2.0985054969787598
1765009592423602700,7.058602783203125,9.966106414794922,1.8759729862213135,-3.4002010822296143
1765009592440566300,7.075566162109375,9.810572624206543,1.9716858863830566,-3.8572301864624023
1765009592457529600,7.092529541015625,10.279565811157227,1.368694543838501,-3.436093330383301
1765009592474493200,7.1094931640625,10.303494453430176,1.2394821643829346,-2.5292134284973145
1765009592491456800,7.126456787109375,10.124032974243164,1.0456634759902954,-1.954936146736145
1765009592508420000,7.143420166015625,10.162318229675293,0.7393822073936462,-1.7635103464126587
1765009592525383700,7.1603837890625,10.164710998535156,0.5958128571510315,-1.4333007335662842
1765009592542347000,7.177346923828125,9.518648147583008,0.5575276613235474,-0.9619147181510925
1765009592559310600,7.194310546875,9.41336441040039,0.42831525206565857,-1.0289137363433838
1765009592576274200,7.211274169921875,9.245866775512695,0.45224347710609436,-1.0671988725662231
1765009592593237500,7.228237548828125,9.501898765563965,0.5575276613235474,-1.0289137363433838
1765009592610201000,7.245201171875,10.059426307678223,0.1579262912273407,-1.069591760635376
1765009592627164700,7.26216455078125,10.375279426574707,0.05742774158716202,-0.8805587291717529
1765009592644128000,7.2791279296875,10.346565246582031,0.1818545162677765,-0.8997012972831726
1765009592661091600,7.296091552734375,10.080962181091309,0.3565305769443512,-1.00259268283844
1765009592678055000,7.313054931640625,9.705288887023926,0.5982056856155396,-0.916451096534729
1765009592695018500,7.3300185546875,9.226723670959473,0.8255237936973572,-0.7130611538887024
1765009592711982000,7.346982177734375,8.635697364807129,1.0145567655563354,-0.6005984544754028
1765009592728945400,7.3639453125,8.2695951461792,1.1509476900100708,-0.6795616149902344
1765009592745909000,7.380908935546875,8.243273735046387,1.306481122970581,-0.6029912829399109
1765009592762872300,7.397872314453125,8.329415321350098,1.2921242713928223,-0.4307080805301666
1765009592779836000,7.4148359375,8.793622970581055,0.8901300430297852,-0.5335994362831116
1765009592796799500,7.431799560546875,9.477970123291016,0.5742774605751038,-0.7393822073936462
1765009592813762800,7.4487626953125,10.04267692565918,0.23688943684101105,-0.9212366938591003
1765009592830726400,7.465726318359375,10.435099601745605,0.04546362906694412,-1.1413763761520386
1765009592847690000,7.48268994140625,10.683953285217285,0.18903298676013947,-0.8422735929489136
1765009592864653300,7.4996533203125,10.652846336364746,0.14356936514377594,-0.6484549641609192
1765009592881617000,7.516616943359375,10.348958015441895,0.31345975399017334,-0.5742774605751038
1765009592898580200,7.533580322265625,9.78664493560791,0.6891329288482666,-0.6795616149902344
1765009592915543800,7.550543701171875,9.305686950683594,1.0217353105545044,-0.9403793215751648
1765009592932507400,7.56750732421875,9.073583602905273,1.1102696657180786,-1.00259268283844
1765009592949470700,7.584470703125,9.135796546936035,0.8111668825149536,-0.9882357716560364
1765009592966434300,7.601434326171875,9.76989459991455,0.4785645306110382,-0.7776673436164856
1765009592983398000,7.61839794921875,10.097711563110352,0.4163511395454407,-0.45942193269729614
1765009593000361200,7.635361328125,10.38485050201416,0.3684946894645691,-0.23210379481315613
1765009593017324800,7.65232470703125,10.1216402053833,0.6101697683334351,-0.16749759018421173
1765009593034288400,7.669288330078125,9.69093132019043,0.8781659007072449,-0.3158525824546814
1765009593051251700,7.686251708984375,8.910871505737305,1.0887342691421509,-0.7489534616470337
1765009593068215300,7.70321533203125,8.48734188079834,0.9092726111412048,-1.0241280794143677
1765009593085178600,7.7201787109375,8.752944946289062,0.9571290612220764,-0.8063812255859375
1765009593102142200,7.73714208984375,9.238688468933105,0.6005984544754028,-0.6628118753433228
1765009593119105800,7.754105712890625,10.1216402053833,0.05503492057323456,-0.6652047038078308
1765009593136069000,7.771069091796875,10.743773460388184,0.01196411345154047,-0.5886343717575073
1765009593153032700,7.78803271484375,10.784451484680176,0.37088751792907715,-0.24167509377002716
1765009593169996300,7.804996337890625,10.03549861907959,0.9451649188995361,0.062213387340307236
1765009593186959600,7.821959716796875,8.903693199157715,1.4859428405761719,-0.2991028428077698
1765009593203923200,7.838923095703125,7.814958572387695,1.552941918373108,-0.8015955686569214
1765009593220886500,7.855886474609375,8.11406135559082,0.8614161610603333,-1.3399807214736938
1765009593237850000,7.87285009765625,9.738788604736328,0.2153540402650833,-1.3351950645446777
1765009593254813700,7.889813720703125,10.789237022399902,-0.11485548317432404,-0.5168496966362
1765009593271777000,7.906777099609375,11.626725196838379,-0.2919243574142456,0.15314064919948578
1765009593288740600,7.92374072265625,11.406585693359375,0.13160525262355804,0.550349235534668
1765009593305704000,7.940703857421875,9.76989459991455,0.8781659007072449,0.34695929288864136
1765009593322667500,7.95766748046875,8.803194046020508,1.1676974296569824,-0.4019941985607147
1765009593339631000,7.974631103515625,8.008777618408203,1.2993026971817017,-1.2370892763137817
1765009593356594400,7.991594482421875,7.905886173248291,1.179661512374878,-1.5864413976669312
1765009593373558000,8.00855810546875,9.305686950683594,0.6101697683334351,-1.7682958841323853
1765009593390521600,8.025521484375,10.284351348876953,0.05503492057323456,-1.1437692642211914
1765009593407485000,8.04248486328125,11.521441459655762,-0.16271193325519562,-0.45224347710609436
1765009593424448500,8.059448486328124,11.854043006896973,-0.12203395366668701,0.031106693670153618
1765009593441411800,8.076411865234375,11.162517547607422,0.0526420995593071,0.1698904037475586
1765009593458375400,8.09337548828125,10.39920711517334,0.349352091550827,-0.062213387340307236
1765009593475339000,8.110339111328125,9.549755096435547,1.0265209674835205,-0.46420758962631226
1765009593492302300,8.12730224609375,8.489734649658203,1.6773686408996582,-0.7226324677467346
1765009593509266000,8.144265869140625,7.941778182983398,1.8041882514953613,-0.8877372145652771
1765009593526229500,8.1612294921875,8.00638484954834,1.4333007335662842,-0.9762716293334961
1765009593543192800,8.17819287109375,8.599804878234863,0.8757730722427368,-0.8781659007072449
1765009593560156400,8.195156494140624,9.554540634155273,0.4163511395454407,-0.576670229434967
1765009593577120000,8.2121201171875,10.375279426574707,0.1698904037475586,-0.24885354936122894
1765009593594083300,8.229083251953124,10.77966594696045,-0.007178467698395252,-0.038285162299871445
1765009593611047000,8.246046875,10.715060234069824,0.004785645287483931,0.08614161610603333
1765009593628010200,8.26301025390625,10.360921859741211,0.26560330390930176,-0.11724831163883209
1765009593644973800,8.279973876953125,9.841679573059082,0.672383189201355,-0.4091726839542389
1765009593661937400,8.2969375,9.44447135925293,1.0767701864242554,-0.4331009089946747
1765009593678901000,8.31390087890625,8.949156761169434,1.3830515146255493,-0.275174617767334
1765009593695864300,8.3308642578125,8.748159408569336,1.2562319040298462,-0.44745782017707825
1765009593712828000,8.347827880859375,8.884550094604492,1.007378339767456,-0.7992027401924133
1765009593729791200,8.364791259765624,9.123832702636719,0.8733802437782288,-0.672383189201355
1765009593746754800,8.3817548828125,9.774680137634277,0.8566305041313171,-0.36610186100006104
1765009593763718400,8.398718505859375,10.2747802734375,0.641276478767395,-0.13160525262355804
1765009593780682000,8.415681884765625,10.389636039733887,0.5335994362831116,0.038285162299871445
1765009593797645300,8.432645263671875,9.841679573059082,0.7872386574745178,0.004785645287483931
1765009593814609000,8.44960888671875,8.96112060546875,0.763310432434082,-0.5718846321105957
1765009593831572200,8.466572265625,8.72183895111084,-0.004785645287483931,-1.1341979503631592
1765009593848535800,8.483535888671875,10.679167747497559,0.08853443711996078,0.1579262912273407
1765009593865499100,8.5004990234375,11.868400573730469,0.9762716293334961,2.0817556381225586
1765009593882462700,8.517462646484375,9.554540634155273,1.950150489807129,2.335394859313965
1765009593899426300,8.53442626953125,6.235695838928223,1.8137595653533936,-0.2632105052471161
1765009593916389600,8.5513896484375,4.613361835479736,0.6364908218383789,-2.957528829574585
1765009593933353200,8.568353271484375,10.717453002929688,-0.9858429431915283,-3.9840497970581055
1765009593950316800,8.58531689453125,13.131811141967773,-0.4905286431312561,-0.6197410821914673
1765009593967280000,8.602280029296875,13.155738830566406,-1.3591232299804688,2.0315065383911133
1765009593984243700,8.61924365234375,12.56710433959961,-1.8065811395645142,2.2683959007263184
1765009594001207300,8.636207275390625,10.466206550598145,-0.47617170214653015,1.8735800981521606
1765009594018170600,8.653170654296876,9.212367057800293,0.49292147159576416,-0.059820566326379776
1765009594035134200,8.67013427734375,9.513862609863281,1.215553879737854,-0.8279166221618652
1765009594052097800,8.687097900390626,9.611968994140625,2.218146562576294,-0.9595218896865845
1765009594069061000,8.70406103515625,8.09252643585205,1.672582983970642,-1.2897313833236694
1765009594086024700,8.721024658203126,8.650053977966309,0.576670229434967,-1.6462619304656982
1765009594102988000,8.737988037109375,10.030712127685547,-0.44745782017707825,-1.0719845294952393
1765009594119951600,8.75495166015625,11.040483474731445,-0.4618147611618042,0.5288137793540955
1765009594136915200,8.771915283203125,10.612168312072754,-0.1579262912273407,1.6917256116867065
1765009594153878800,8.788878662109376,9.45164966583252,0.2679961323738098,1.3663017749786377
1765009594170842000,8.805842041015625,8.429914474487305,1.057627558708191,0.08853443711996078
1765009594187805700,8.8228056640625,7.960920810699463,1.4452649354934692,-1.581655740737915
1765009594204769000,8.83976904296875,9.681360244750977,0.7800601720809937,-2.5698914527893066
1765009594221732600,8.856732666015626,11.327622413635254,-0.08374879509210587,-1.4165509939193726
1765009594238696200,8.8736962890625,10.942378044128418,0.40677985548973083,0.6460621356964111
1765009594255659500,8.890659423828126,9.475577354431152,1.2131611108779907,1.5672988891601562
1765009594272623000,8.907623046875,7.156932353973389,2.280359983444214,1.3280165195465088
1765009594289586700,8.924586669921876,5.953342914581299,1.28255295753479,-0.6580262184143066
1765009594306550000,8.941550048828125,8.714659690856934,-0.12681959569454193,-2.8666014671325684
1765009594323513600,8.958513671875,11.96172046661377,-0.38285163044929504,-2.3641088008880615
1765009594340477200,8.975477294921875,13.40698528289795,-0.23210379481315613,-0.064606212079525
1765009594357440500,8.9924404296875,13.057633399963379,-0.09092725813388824,1.4644074440002441
1765009594374404000,9.009404052734375,10.470992088317871,0.8757730722427368,0.9978070259094238
1765009594391367400,9.026367431640624,6.489335060119629,1.2323036193847656,-0.08374879509210587
1765009594408331000,9.0433310546875,4.642076015472412,0.9762716293334961,-1.9884356260299683
1765009594425294600,9.060294677734374,12.208181381225586,-0.6604190468788147,-3.3547372817993164
1765009594442258200,9.077258056640625,13.256237030029297,0.3326023519039154,-0.27756741642951965
1765009594459221500,9.094221435546874,10.64088249206543,0.8805587291717529,1.557727575302124
1765009594476185000,9.11118505859375,8.250452041625977,0.7441678643226624,1.6007983684539795
1765009594493148400,9.1281484375,3.9912281036376953,1.674975872039795,0.8398807644844055
1765009594510112000,9.145112060546875,4.213760852813721,0.4211367964744568,-1.2610175609588623
1765009594527075600,9.16207568359375,13.438092231750488,-0.17706887423992157,-2.9455647468566895
1765009594544039000,9.179038818359375,12.100503921508789,0.13160525262355804,-1.667797327041626
1765009594561002500,9.19600244140625,13.64148235321045,-1.4883357286453247,-0.12203395366668701
1765009594577966000,9.212966064453125,12.662817001342773,-1.5146567821502686,1.2801600694656372
1765009594594929400,9.229929443359374,9.018548965454102,0.1579262912273407,1.4500504732131958
1765009594611893000,9.24689306640625,5.383851051330566,0.9810572862625122,-0.2632105052471161
1765009594628856300,9.263856201171874,8.066205024719238,0.4785645306110382,-2.045863389968872
1765009594645820000,9.28081982421875,16.82632827758789,-1.923829436302185,-1.7419748306274414
1765009594662783500,9.297783447265624,14.270793914794922,-1.337587833404541,0.8781659007072449
1765009594679747000,9.3147470703125,11.133803367614746,-0.4785645306110382,2.6608188152313232
1765009594696710400,9.33171044921875,6.38165807723999,0.8566305041313171,2.4430718421936035
1765009594713674000,9.348674072265625,2.462214469909668,1.5098711252212524,1.074377417564392
1765009594730637300,9.36563720703125,5.843272686004639,0.8422735929489136,-1.196411371231079
1765009594747601000,9.382600830078125,12.162717819213867,1.3567304611206055,-2.737389087677002
1765009594764564500,9.399564453125,12.52881908416748,0.6317051649093628,-1.9166508913040161
1765009594781527800,9.41652783203125,15.132210731506348,-1.0911271572113037,-0.062213387340307236
1765009594798491400,9.433491455078125,14.47179126739502,-0.9260223507881165,0.8374879360198975
1765009594815455000,9.450455078125,11.035697937011719,0.05503492057323456,1.3519448041915894
1765009594832418300,9.467418212890625,7.274180889129639,0.41156548261642456,0.2871387302875519
1765009594849382000,9.4843818359375,5.558526992797852,0.7561319470405579,-0.3732803463935852
1765009594866345500,9.501345458984375,9.241081237792969,0.4019941985607147,-0.34695929288864136
1765009594883308800,9.518308837890626,10.29153060913086,1.770688772201538,-0.04546362906694412
1765009594900272400,9.5352724609375,6.872186660766602,1.4213366508483887,0.8015955686569214
1765009594917235700,9.552235595703126,7.36032247543335,-0.5335994362831116,1.057627558708191
1765009594934199300,9.56919921875,8.63330364227295,-1.2442678213119507,0.8303094506263733
1765009594951163000,9.586162841796876,10.258030891418457,-0.37088751792907715,0.607776939868927
1765009594968126500,9.60312646484375,10.49970531463623,0.7202396392822266,-0.04307080805301666
1765009594985089800,9.62008984375,10.126425743103027,1.2059825658798218,-0.7776673436164856
1765009595002053400,9.637053466796875,9.298508644104004,1.397408366203308,-1.069591760635376
1765009595019016700,9.6540166015625,8.982656478881836,1.038485050201416,-0.9954141974449158
1765009595035980300,9.670980224609375,9.501898765563965,0.9284151792526245,-0.8087740540504456
1765009595052944000,9.68794384765625,9.154939651489258,0.8566305041313171,-0.672383189201355
1765009595069907200,9.7049072265625,10.037891387939453,0.18903298676013947,-0.7752745151519775
1765009595086870800,9.721870849609376,10.801201820373535,0.16271193325519562,-0.4091726839542389
1765009595103834400,9.73883447265625,11.492727279663086,0.0023928226437419653,-0.2632105052471161
1765009595120797700,9.755797607421876,11.810972213745117,-0.18903298676013947,-0.3756731450557709
1765009595137761300,9.77276123046875,11.808579444885254,-0.1698904037475586,-0.6173482537269592
1765009595154724600,9.789724609375,11.782258987426758,0.10289137065410614,-0.8877372145652771
1765009595171688200,9.806688232421875,11.44247817993164,0.5240281820297241,-0.763310432434082
1765009595188651800,9.82365185546875,10.329814910888672,0.8781659007072449,-0.3900300860404968
1765009595205615000,9.840614990234375,8.989834785461426,1.069591760635376,-0.02871387079358101
1765009595222578700,9.85757861328125,8.209774017333984,1.1653046607971191,0.24167509377002716
1765009595239542300,9.874542236328125,7.774280548095703,1.34476637840271,0.4019941985607147
1765009595256505600,9.891505615234376,7.858029365539551,1.2921242713928223,0.25363919138908386
1765009595273469200,9.90846923828125,8.70508861541748,1.0360921621322632,-0.02871387079358101
1765009595290432500,9.9254326171875,9.365508079528809,0.7489534616470337,-0.14356936514377594
1765009595307396000,9.94239599609375,9.820143699645996,0.5407779216766357,-0.035892341285943985
1765009595324359700,9.959359619140624,10.06421184539795,0.45224347710609436,0.05742774158716202
1765009595341323300,9.9763232421875,10.040284156799316,0.4833501875400543,0.040677983313798904
1765009595358286600,9.99328662109375,9.750752449035645,0.5383850932121277,-0.08374879509210587
1765009595375250200,10.010250244140625,9.671789169311523,0.729810893535614,-0.08853443711996078
1765009595392213500,10.027213623046874,9.755537986755371,0.8973084688186646,-0.02871387079358101
1765009595409177000,10.044177001953125,9.619147300720215,0.9690931439399719,0.09810572862625122
1765009595426140700,10.061140625,9.410971641540527,1.0145567655563354,0.20338992774486542
1765009595443104000,10.07810400390625,9.126225471496582,1.1748759746551514,0.2225325107574463
1765009595460067600,10.095067626953124,8.812766075134277,1.2538390159606934,0.14835500717163086
1765009595477031200,10.11203125,8.559126853942871,1.196411371231079,0.22971096634864807
1765009595493994500,10.128994384765624,8.662017822265625,1.2490534782409668,0.2871387302875519
1765009595510958000,10.1459580078125,8.941978454589844,1.129412293434143,0.20578274130821228
1765009595527921700,10.162921630859374,9.317651748657227,0.97148597240448,0.040677983313798904
1765009595544885000,10.179885009765625,9.621540069580078,0.8327022790908813,-0.08374879509210587
1765009595561848600,10.1968486328125,9.81535816192627,0.7657032608985901,0.06699903309345245
1765009595578812000,10.21381201171875,9.891928672790527,0.7058826684951782,0.34695929288864136
1765009595595775500,10.230775390625,9.942177772521973,0.7369893789291382,0.363709032535553
1765009595612739000,10.247739013671875,9.846465110778809,0.7441678643226624,0.3397808074951172
1765009595629702400,10.264702392578124,9.650253295898438,0.6436693072319031,0.42831525206565857
1765009595646666000,10.281666015625,9.595218658447266,0.794417142868042,0.5240281820297241
1765009595663629600,10.298629638671875,10.147960662841797,0.9499505758285522,0.5096712112426758
1765009595680593000,10.315593017578125,10.403992652893066,1.0456634759902954,0.6364908218383789
1765009595697556500,10.332556396484375,10.1814603805542,0.7968099117279053,0.4498506486415863
1765009595714519800,10.349519775390625,9.970891952514648,0.6293123364448547,0.2392822653055191
1765009595731483400,10.3664833984375,9.951749801635742,0.9547362327575684,0.3086741268634796
1765009595748447000,10.383447021484375,9.535398483276367,1.2849457263946533,0.3565305769443512
1765009595765410300,10.400410400390625,8.683553695678711,1.3304094076156616,0.04307080805301666
1765009595782374000,10.417373779296875,7.994420528411865,1.222732424736023,-0.3206382393836975
1765009595799337500,10.43433740234375,8.63330364227295,1.332802176475525,-0.37088751792907715
1765009595816300800,10.45130078125,8.664410591125488,1.34476637840271,-0.33499518036842346
1765009595833264400,10.468264404296875,8.94676399230957,1.2801600694656372,-0.2105683982372284
1765009595850228000,10.48522802734375,9.083154678344727,1.2251251935958862,0.038285162299871445
1765009595867191300,10.50219140625,8.913264274597168,1.191625714302063,0.2392822653055191
1765009595884155000,10.51915478515625,8.769695281982422,1.098305583000183,0.39481574296951294
1765009595901118200,10.5361181640625,9.53061294555664,0.9451649188995361,0.34217363595962524
1765009595918081800,10.553081787109376,10.090533256530762,0.8925228714942932,0.45224347710609436
1765009595935045400,10.57004541015625,10.526026725769043,0.8063812255859375,0.42831525206565857
1765009595952008700,10.5870087890625,10.437492370605469,0.5335994362831116,0.05742774158716202
1765009595968972300,10.60397216796875,10.497312545776367,0.5790630578994751,-0.2584248483181
1765009595985936000,10.620935791015626,10.99741268157959,1.0169496536254883,-0.1339980661869049
1765009596002899200,10.637899169921875,10.827522277832031,1.4500504732131958,0.29431718587875366
1765009596019862800,10.65486279296875,10.564311981201172,1.4859428405761719,0.3684946894645691
1765009596036826000,10.671826171875,10.289137840270996,1.4691931009292603,0.23449662327766418
1765009596053789700,10.688789794921876,9.820143699645996,1.6630117893218994,0.24406790733337402
1765009596070753300,10.705753173828125,9.229117393493652,1.7084753513336182,0.1866401731967926
1765009596087716600,10.722716552734376,9.131011009216309,1.5864413976669312,0.3756731450557709
1765009596104680200,10.73968017578125,9.052047729492188,1.6151553392410278,0.5670989751815796
1765009596121643800,10.756643798828126,8.748159408569336,1.4739787578582764,0.49292147159576416
1765009596138607000,10.773607177734375,8.908478736877441,1.1629117727279663,0.4019941985607147
1765009596155570700,10.79057080078125,9.267401695251465,0.7178468108177185,0.40677985548973083
1765009596172534300,10.8075341796875,9.781859397888184,0.576670229434967,0.4905286431312561
1765009596189497600,10.82449755859375,9.382257461547852,0.6149554252624512,0.20099709928035736
1765009596206461200,10.841461181640625,9.621540069580078,0.6819544434547424,-0.04307080805301666
1765009596223424500,10.858424560546876,9.796216011047363,0.4666004180908203,0.04307080805301666
1765009596240388000,10.87538818359375,9.573683738708496,0.29431718587875366,0
1765009596257351400,10.892351318359376,9.667003631591797,0.3517449200153351,0.02392822690308094
1765009596274315000,10.90931494140625,9.693324089050293,0.6340979933738708,0.1698904037475586
1765009596291278600,10.926278564453124,9.547362327575684,0.7417750358581543,0.04785645380616188
1765009596308242000,10.943241943359375,9.339186668395996,0.607776939868927,0.019142581149935722
1765009596325205500,10.96020556640625,9.30329418182373,0.4618147611618042,-0.059820566326379776
1765009596342169000,10.977169189453125,9.674181938171387,0.5886343717575073,-0.15314064919948578
1765009596359132400,10.99413232421875,12.993026733398438,1.0121639966964722,-0.4139583110809326
1765009596376096000,11.011095947265625,12.715459823608398,0.7824530005455017,0.21296121180057526
1765009596393059600,11.0280595703125,10.234102249145508,0.12921242415905,-0.5312066078186035
1765009596410023000,11.04502294921875,9.882357597351074,0.8709874153137207,-0.2919243574142456
1765009596426986500,11.061986572265624,9.233902931213379,0.7848458290100098,0.19142581522464752
1765009596443949800,11.07894970703125,8.461020469665527,0.6317051649093628,0.6125625967979431
1765009596460913400,11.095913330078124,8.58066177368164,0.8662018179893494,0.3326023519039154
1765009596477877000,11.112876953125,9.166903495788574,0.9020941257476807,0.10767702013254166
1765009596494840300,11.12984033203125,9.513862609863281,0.9284151792526245,0.15553347766399384
1765009596511804000,11.146803955078125,9.638289451599121,0.8757730722427368,0.10049854964017868
1765009596528767500,11.163767578125,9.671789169311523,0.7680960893630981,0.1698904037475586
1765009596545730800,11.180730712890625,9.930213928222656,0.7369893789291382,0.040677983313798904
1765009596562694400,11.1976943359375,9.839286804199219,0.5838487148284912,-0.19381862878799438
1765009596579657700,11.21465771484375,9.93978500366211,0.5718846321105957,-0.2919243574142456
1765009596596621300,11.231621337890624,9.891928672790527,0.6101697683334351,-0.2799602448940277
1765009596613585000,11.2485849609375,9.674181938171387,0.6508477330207825,-0.16749759018421173
1765009596630548200,11.26554833984375,9.621540069580078,0.6747759580612183,-0.2847459018230438
1765009596647511800,11.28251171875,9.753145217895508,0.8063812255859375,-0.363709032535553
1765009596664475100,11.29947509765625,9.860821723937988,0.6580262184143066,-0.23449662327766418
1765009596681438700,11.316438720703125,9.896714210510254,0.672383189201355,-0.13160525262355804
1765009596698402300,11.33340234375,9.844072341918945,0.605384111404419,-0.12203395366668701
1765009596715365600,11.35036572265625,9.659825325012207,0.4570291340351105,-0.16749759018421173
1765009596732329200,11.3673291015625,9.954142570495605,0.5647061467170715,-0.16749759018421173
1765009596749292800,11.384292724609375,9.927821159362793,0.5216353535652161,-0.1986042857170105
1765009596766256000,11.401256103515625,9.67657470703125,0.641276478767395,-0.18424734473228455
1765009596783219700,11.4182197265625,9.554540634155273,0.6939185857772827,-0.12921242415905
1765009596800183000,11.43518310546875,9.619147300720215,0.6819544434547424,-0.062213387340307236
1765009596817146600,11.452146728515626,9.65503978729248,0.7106683254241943,-0.12442677468061447
1765009596834110200,11.469110107421875,9.659825325012207,0.6963114142417908,-0.14117653667926788
1765009596851073500,11.486073486328126,9.643074989318848,0.5814558863639832,-0.16510476171970367
1765009596868037000,11.503037109375,9.77707290649414,0.6795616149902344,-0.10289137065410614
1765009596885000400,11.52000048828125,9.8871431350708,0.6484549641609192,-0.0933200865983963
1765009596901964000,11.536964111328125,9.824930191040039,0.6675975322723389,-0.08374879509210587
1765009596918927600,11.553927734375,9.659825325012207,0.7082754969596863,0.007178467698395252
1765009596935891000,11.570890869140625,9.518648147583008,0.7393822073936462,0.019142581149935722
1765009596952854500,11.5878544921875,9.408578872680664,0.7585247755050659,-0.04546362906694412
1765009596969818000,11.604818115234375,9.645467758178711,0.7513462901115417,-0.07417750358581543
1765009596986781400,11.621781494140626,9.812965393066406,0.7202396392822266,-0.08135596662759781
1765009597003745000,11.6387451171875,9.798608779907227,0.6843472719192505,-0.11246266216039658
1765009597020708400,11.655708251953126,9.753145217895508,0.6652047038078308,-0.13160525262355804
1765009597037672000,11.672671875,9.705288887023926,0.638883650302887,-0.12203395366668701
1765009597054635500,11.689635498046876,9.726823806762695,0.6269195079803467,-0.17706887423992157
1765009597071598800,11.706598876953125,9.65503978729248,0.6532405614852905,-0.11006984114646912
1765009597088562400,11.7235625,9.66221809387207,0.6508477330207825,-0.035892341285943985
1765009597105526000,11.740526123046875,9.650253295898438,0.6963114142417908,-0.02871387079358101
1765009597122489300,11.7574892578125,9.803394317626953,0.7680960893630981,-0.04546362906694412
1765009597139453000,11.774452880859375,9.836894035339355,0.7178468108177185,-0.14117653667926788
1765009597156416300,11.791416259765626,9.741181373596191,0.7082754969596863,-0.12442677468061447
1765009597173379800,11.8083798828125,9.609575271606445,0.6939185857772827,-0.07657032459974289
1765009597190343200,11.82534326171875,9.571290969848633,0.6939185857772827,-0.035892341285943985
1765009597207306800,11.842306640625,9.707681655883789,0.729810893535614,-0.10049854964017868
1765009597224270300,11.859270263671876,9.741181373596191,0.6675975322723389,-0.13878370821475983
1765009597241233700,11.876233642578125,9.812965393066406,0.7010970115661621,-0.07896314561367035
1765009597258197200,11.893197265625,9.68375301361084,0.6508477330207825,-0.08853443711996078
1765009597275160800,11.910160888671875,9.695717811584473,0.7082754969596863,-0.11485548317432404
1765009597292124200,11.927124267578124,9.693324089050293,0.7034898400306702,-0.10049854964017868
1765009597309087700,11.944087646484375,9.652647018432617,0.6652047038078308,-0.07657032459974289
1765009597326051000,11.961051025390624,9.738788604736328,0.6939185857772827,-0.11964113265275955
1765009597343014700,11.9780146484375,9.743574142456055,0.727418065071106,-0.10767702013254166
1765009597359978000,11.99497802734375,9.805787086486816,0.7417750358581543,-0.09571290761232376
1765009597376941600,12.011941650390625,9.734002113342285,0.763310432434082,-0.05503492057323456
1765009597393905200,12.0289052734375,9.633503913879395,0.7058826684951782,-0.05742774158716202
1765009597410868500,12.045868408203125,9.56889820098877,0.7154539823532104,-0.06699903309345245
1765009597427832000,12.06283203125,9.638289451599121,0.7250252366065979,-0.02871387079358101
1765009597444795400,12.07979541015625,9.633503913879395,0.7034898400306702,-0.07417750358581543
1765009597461759000,12.096759033203124,9.78664493560791,0.7369893789291382,-0.09571290761232376
1765009597478722600,12.11372265625,9.882357597351074,0.7226324677467346,-0.11724831163883209
1765009597495686000,12.130685791015624,9.710074424743652,0.7465606927871704,-0.08135596662759781
1765009597512649500,12.1476494140625,9.626325607299805,0.7178468108177185,-0.06939185410737991
1765009597529612800,12.16461279296875,9.607182502746582,0.7010970115661621,-0.12681959569454193
1765009597546576400,12.181576416015625,9.781859397888184,0.7776673436164856,-0.05024927482008934
1765009597563539700,12.198539794921874,9.714859962463379,0.7058826684951782,-0.07896314561367035
1765009597580503300,12.21550341796875,9.719645500183105,0.6867401003837585,-0.06699903309345245
1765009597597467000,12.232466796875,9.535398483276367,0.727418065071106,-0.11246266216039658
1765009597614430200,12.24943017578125,9.741181373596191,0.7465606927871704,-0.11246266216039658
1765009597631393800,12.266393798828124,9.810572624206543,0.7010970115661621,-0.08853443711996078
1765009597648357400,12.283357421875,9.68375301361084,0.727418065071106,-0.04307080805301666
1765009597665320700,12.30032080078125,9.66221809387207,0.7130611538887024,-0.06699903309345245
1765009597682284300,12.3172841796875,9.731609344482422,0.7489534616470337,-0.10289137065410614
1765009597699247600,12.33424755859375,9.791430473327637,0.7465606927871704,-0.06699903309345245
1765009597716211200,12.351211181640625,9.650253295898438,0.7441678643226624,-0.059820566326379776
1765009597733174500,12.368174560546874,9.65503978729248,0.7393822073936462,-0.02871387079358101
1765009597750138000,12.38513818359375,9.638289451599121,0.6867401003837585,-0.07896314561367035
1765009597767101700,12.402101806640625,9.702896118164062,0.7752745151519775,-0.08374879509210587
1765009597784065000,12.41906494140625,9.753145217895508,0.7322037220001221,-0.10289137065410614
1765009597801028600,12.436028564453125,9.719645500183105,0.7082754969596863,-0.09571290761232376
1765009597817992000,12.452991943359375,9.686145782470703,0.7202396392822266,-0.07417750358581543
1765009597834955500,12.46995556640625,9.626325607299805,0.698704183101654,-0.059820566326379776
1765009597851918800,12.4869189453125,9.647860527038574,0.7226324677467346,-0.07896314561367035
1765009597868882400,12.50388232421875,9.726823806762695,0.6795616149902344,-0.11006984114646912
1765009597885846000,12.520845947265625,9.717252731323242,0.7058826684951782,-0.12442677468061447
1765009597902809300,12.537809326171875,9.781859397888184,0.6771687865257263,-0.14835500717163086
1765009597919773000,12.55477294921875,9.714859962463379,0.6867401003837585,-0.14117653667926788
1765009597936736300,12.571736328125,9.674181938171387,0.6795616149902344,-0.12203395366668701
1765009597953699800,12.588699951171876,9.738788604736328,0.7034898400306702,-0.11006984114646912
1765009597970663200,12.6056630859375,9.78664493560791,0.6915257573127747,-0.07657032459974289
1765009597987626800,12.622626708984376,9.69093132019043,0.6891329288482666,-0.059820566326379776
1765009598004590300,12.63959033203125,9.66221809387207,0.7034898400306702,-0.05742774158716202
1765009598021553700,12.6565537109375,9.66939640045166,0.7010970115661621,-0.07896314561367035
1765009598038517200,12.673517333984375,9.702896118164062,0.7322037220001221,-0.12921242415905
1765009598055480600,12.69048046875,9.734002113342285,0.6963114142417908,-0.08853443711996078
1765009598072444200,12.707444091796875,9.638289451599121,0.7226324677467346,-0.1052841991186142
1765009598089407500,12.724407470703126,9.686145782470703,0.7058826684951782,-0.05742774158716202
1765009598106371000,12.74137109375,9.745966911315918,0.727418065071106,-0.07178468257188797
1765009598123334700,12.758334716796876,9.812965393066406,0.7082754969596863,-0.12921242415905
1765009598140298000,12.775298095703125,9.698110580444336,0.7226324677467346,-0.08614161610603333
1765009598157261600,12.792261474609376,9.600004196166992,0.7322037220001221,-0.07417750358581543
1765009598174225000,12.809224853515625,9.54496955871582,0.7226324677467346,-0.05024927482008934
1765009598191188500,12.8261884765625,9.633503913879395,0.7106683254241943,-0.07896314561367035
1765009598208152000,12.843152099609375,9.772287368774414,0.698704183101654,-0.07896314561367035
1765009598225115400,12.860115478515626,9.757930755615234,0.6891329288482666,-0.12681959569454193
1765009598242079000,12.877078857421875,9.707681655883789,0.6963114142417908,-0.07417750358581543
1765009598259042300,12.894042236328126,9.657432556152344,0.7010970115661621,-0.05742774158716202
1765009598276006000,12.911005859375,9.772287368774414,0.6843472719192505,-0.09092725813388824
1765009598292969200,12.92796923828125,9.834501266479492,0.6628118753433228,-0.10289137065410614
1765009598309932800,12.944932861328125,9.729216575622559,0.6604190468788147,-0.12681959569454193
1765009598326896400,12.961896484375,9.705288887023926,0.6963114142417908,-0.10767702013254166
1765009598343859700,12.978859619140625,9.65503978729248,0.6939185857772827,-0.05503492057323456
1765009598360823000,12.995822998046876,9.686145782470703,0.7202396392822266,-0.07417750358581543
1765009598377786600,13.01278662109375,9.722038269042969,0.7058826684951782,-0.07178468257188797
1765009598394750200,13.029750244140626,9.714859962463379,0.6771687865257263,-0.08614161610603333
1765009598411713500,13.046713623046875,9.707681655883789,0.7106683254241943,-0.05742774158716202
1765009598428677000,13.063677001953126,9.659825325012207,0.6939185857772827,-0.05503492057323456
1765009598445640400,13.080640380859375,9.738788604736328,0.6963114142417908,-0.12442677468061447
1765009598462604000,13.09760400390625,9.803394317626953,0.7154539823532104,-0.04307080805301666
1765009598479567400,13.1145673828125,9.757930755615234,0.7178468108177185,-0.031106693670153618
1765009598496531000,13.131531005859374,9.607182502746582,0.7082754969596863,-0.10049854964017868
1765009598513494500,13.14849462890625,9.686145782470703,0.7441678643226624,-0.08135596662759781
1765009598530457900,13.165457763671874,9.750752449035645,0.7369893789291382,-0.06939185410737991
1765009598547421400,13.18242138671875,9.772287368774414,0.7226324677467346,-0.1052841991186142
1765009598564384800,13.199384765625,9.827322959899902,0.6939185857772827,-0.11246266216039658
1765009598581348400,13.216348388671875,9.487542152404785,0.7489534616470337,-0.12203395366668701
1765009598598311700,13.233311767578124,9.705288887023926,0.7345965504646301,-0.11964113265275955
1765009598615275300,13.250275146484375,9.741181373596191,0.7106683254241943,-0.062213387340307236
1765009598632238800,13.26723876953125,9.812965393066406,0.7345965504646301,-0.0933200865983963
1765009598649202200,13.2842021484375,9.738788604736328,0.763310432434082,-0.07896314561367035
1765009598666165800,13.301165771484374,9.695717811584473,0.7585247755050659,-0.06939185410737991
1765009598683129000,13.318129150390625,9.626325607299805,0.7657032608985901,-0.06939185410737991
1765009598700092700,13.3350927734375,9.580862045288086,0.7704889178276062,-0.06699903309345245
1765009598717056000,13.352055908203125,9.609575271606445,0.7537391185760498,-0.12442677468061447
1765009598734019600,13.36901953125,9.67657470703125,0.7680960893630981,-0.10289137065410614
1765009598750983200,13.385983154296875,9.69093132019043,0.7393822073936462,-0.11246266216039658
1765009598767946500,13.402946533203124,9.803394317626953,0.7657032608985901,-0.05742774158716202
1765009598784910000,13.41991015625,9.81535816192627,0.6867401003837585,-0.06939185410737991
1765009598801873400,13.436873291015624,9.762716293334961,0.7130611538887024,-0.0933200865983963
1765009598818837000,13.4538369140625,9.678967475891113,0.7345965504646301,-0.1052841991186142
1765009598835800300,13.47080029296875,9.67657470703125,0.760917603969574,-0.14117653667926788
1765009598852764000,13.487763916015625,9.667003631591797,0.7704889178276062,-0.12203395366668701
1765009598869727500,13.5047275390625,9.65503978729248,0.7585247755050659,-0.12442677468061447
1765009598886690800,13.52169091796875,9.688538551330566,0.7441678643226624,-0.09571290761232376
1765009598903654400,13.538654296875,9.712467193603516,0.7082754969596863,-0.10049854964017868
1765009598920617700,13.55561767578125,9.688538551330566,0.7226324677467346,-0.0933200865983963
1765009598937581300,13.572581298828124,9.69093132019043,0.7417750358581543,-0.10767702013254166
1765009598954544600,13.589544677734375,9.698110580444336,0.7728816866874695,-0.09092725813388824
1765009598971508200,13.60650830078125,9.705288887023926,0.7680960893630981,-0.07896314561367035
1765009598988471800,13.623471923828125,9.678967475891113,0.763310432434082,-0.08853443711996078
1765009599005435100,13.64043505859375,9.647860527038574,0.8207381963729858,-0.10767702013254166
1765009599022398700,13.657398681640625,9.724431037902832,0.7800601720809937,-0.13639089465141296
1765009599039362000,13.674362060546875,9.722038269042969,0.760917603969574,-0.09092725813388824
1765009599056325600,13.69132568359375,9.734002113342285,0.7345965504646301,-0.1459621787071228
1765009599073289000,13.7082890625,9.774680137634277,0.7680960893630981,-0.08853443711996078
1765009599090252500,13.72525244140625,9.702896118164062,0.7585247755050659,-0.059820566326379776
1765009599107216100,13.742216064453125,9.750752449035645,0.7800601720809937,-0.08374879509210587
1765009599124179500,13.759179443359375,9.731609344482422,0.7680960893630981,-0.11724831163883209
1765009599141143000,13.77614306640625,9.561718940734863,0.7968099117279053,-0.09571290761232376
1765009599158106400,13.7931064453125,9.638289451599121,0.8111668825149536,-0.12203395366668701
1765009599175070000,13.810070068359375,9.571290969848633,0.7537391185760498,-0.12681959569454193
1765009599192033300,13.827033203125,9.68375301361084,0.7872386574745178,-0.09571290761232376
1765009599208996900,13.843996826171875,9.707681655883789,0.7680960893630981,-0.08614161610603333
1765009599225960400,13.86096044921875,9.774680137634277,0.7920243144035339,-0.06699903309345245
1765009599242923800,13.877923828125,9.870393753051758,0.7848458290100098,-0.10289137065410614
1765009599259887400,13.894887451171876,9.712467193603516,0.727418065071106,-0.11724831163883209
1765009599276850700,13.9118505859375,9.564111709594727,0.760917603969574,-0.12442677468061447
1765009599293814300,13.928814208984376,9.714859962463379,0.794417142868042,-0.11485548317432404
1765009599310777600,13.945777587890625,9.695717811584473,0.763310432434082,-0.09810572862625122
1765009599327741200,13.9627412109375,9.827322959899902,0.7800601720809937,-0.12681959569454193
1765009599344704800,13.979704833984375,9.77707290649414,0.7728816866874695,-0.12681959569454193
1765009599361668000,13.996668212890626,9.652647018432617,0.8063812255859375,-0.04785645380616188
1765009599378631700,14.013631591796875,9.659825325012207,0.8135597109794617,-0.09092725813388824
1765009599395595000,14.030594970703126,9.631111145019531,0.794417142868042,-0.1052841991186142
1765009599412558600,14.04755859375,9.652647018432617,0.8159525394439697,-0.07896314561367035
1765009599429522000,14.06452197265625,9.743574142456055,0.7872386574745178,-0.11485548317432404
1765009599446485500,14.081485595703125,9.719645500183105,0.7800601720809937,-0.12442677468061447
1765009599463448800,14.09844873046875,9.717252731323242,0.7848458290100098,-0.08135596662759781
1765009599480412400,14.115412353515625,9.652647018432617,0.7872386574745178,-0.09571290761232376
1765009599497376000,14.1323759765625,9.652647018432617,0.7968099117279053,-0.064606212079525
1765009599514339300,14.14933935546875,9.745966911315918,0.8135597109794617,-0.08853443711996078
1765009599531303000,14.166302978515626,9.765109062194824,0.8183453679084778,-0.12442677468061447
1765009599548266200,14.183266357421875,9.65503978729248,0.7561319470405579,-0.10289137065410614
1765009599565229800,14.200229736328126,9.69093132019043,0.7896314859390259,-0.10289137065410614
1765009599582193400,14.217193359375,9.647860527038574,0.7896314859390259,-0.07896314561367035
1765009599599156700,14.23415673828125,9.731609344482422,0.7872386574745178,-0.08614161610603333
1765009599616120300,14.251120361328125,9.767501831054688,0.7968099117279053,-0.08614161610603333
1765009599633083600,14.268083740234376,9.69093132019043,0.7968099117279053,-0.09571290761232376
1765009599650047200,14.285047119140625,9.7005033493042,0.8087740540504456,-0.12203395366668701
1765009599667010600,14.302010498046876,9.76989459991455,0.8015955686569214,-0.11006984114646912
1765009599683974100,14.31897412109375,9.736394882202148,0.7896314859390259,-0.13160525262355804
1765009599700937500,14.3359375,9.731609344482422,0.7657032608985901,-0.14117653667926788
1765009599717901000,14.352901123046875,9.633503913879395,0.7824530005455017,-0.0526420995593071
1765009599734864600,14.36986474609375,9.652647018432617,0.8111668825149536,-0.04307080805301666
1765009599751828000,14.386827880859375,9.65503978729248,0.8135597109794617,-0.10289137065410614
1765009599768791600,14.40379150390625,9.688538551330566,0.8279166221618652,-0.12203395366668701
1765009599785755000,14.4207548828125,9.688538551330566,0.849452018737793,-0.15074782073497772
1765009599802718500,14.437718505859374,9.686145782470703,0.8159525394439697,-0.13639089465141296
1765009599819681800,14.454681884765625,9.686145782470703,0.8183453679084778,-0.16031911969184875
1765009599836645400,14.471645263671874,9.702896118164062,0.8398807644844055,-0.11724831163883209
1765009599853609000,14.48860888671875,9.681360244750977,0.8422735929489136,-0.031106693670153618
1765009599870572300,14.505572265625,9.674181938171387,0.8303094506263733,-0.04785645380616188
1765009599887535900,14.522535888671875,9.674181938171387,0.8638089895248413,-0.035892341285943985
1765009599904499200,14.539499267578124,9.68375301361084,0.8446664214134216,-0.07896314561367035
1765009599921462800,14.556462890625,9.659825325012207,0.8446664214134216,-0.07896314561367035
1765009599938426000,14.573426025390624,9.643074989318848,0.8662018179893494,-0.11246266216039658
1765009599955389700,14.5903896484375,9.674181938171387,0.8566305041313171,-0.11964113265275955
1765009599972353300,14.607353271484374,9.693324089050293,0.8542376756668091,-0.09571290761232376
1765009599989316600,14.624316650390625,9.705288887023926,0.7872386574745178,-0.11485548317432404
1765009600006280200,14.6412802734375,9.719645500183105,0.794417142868042,-0.07417750358581543
1765009600023243500,14.658243408203125,9.643074989318848,0.7848458290100098,-0.05503492057323456
1765009600040207000,14.67520703125,9.77707290649414,0.8350951075553894,-0.05503492057323456
1765009600057170400,14.69217041015625,9.805787086486816,0.8207381963729858,-0.04785645380616188
1765009600074134000,14.709134033203124,9.7005033493042,0.8685946464538574,-0.13878370821475983
1765009600091097600,14.72609765625,9.839286804199219,0.8039883971214294,-0.06699903309345245
1765009600108061000,14.74306103515625,10.097711563110352,0.7417750358581543,0.2799602448940277
1765009600125024500,14.7600244140625,9.358329772949219,0.8685946464538574,0.10049854964017868
1765009600141987800,14.77698779296875,9.882357597351074,0.794417142868042,0.1052841991186142
1765009600158951400,14.793951416015625,9.731609344482422,0.8398807644844055,0.1986042857170105
1765009600175914800,14.810914794921874,9.702896118164062,0.9571290612220764,-0.019142581149935722
1765009600192878300,14.82787841796875,9.324830055236816,1.0528420209884644,0.30149564146995544
1765009600209841700,14.844841552734374,8.920442581176758,0.7704889178276062,0.641276478767395
1765009600226805200,14.86180517578125,9.34875774383545,0.7058826684951782,0.6699903607368469
1765009600243768800,14.878768798828125,10.418350219726562,0.7752745151519775,0.31106695532798767
1765009600260732200,14.895732177734375,10.463813781738281,0.8614161610603333,-0.14356936514377594
1765009600277695700,14.91269580078125,9.997213363647461,0.9332008361816406,-0.2919243574142456
1765009600294659000,14.9296591796875,9.513862609863281,0.9499505758285522,-0.10289137065410614
1765009600311622700,14.94662255859375,9.238688468933105,0.7178468108177185,0.1698904037475586
1765009600328586000,14.9635859375,9.418149948120117,0.8614161610603333,0.2991028428077698
1765009600345549600,14.980549560546875,9.659825325012207,0.8135597109794617,0.12921242415905
1765009600362513000,14.997512939453125,9.91107177734375,0.9571290612220764,0.007178467698395252
1765009600379476500,15.0144765625,9.92542839050293,1.0408778190612793,-0.16031911969184875
1765009600396440000,15.031440185546876,9.628718376159668,1.0863415002822876,-0.19621145725250244
1765009600413403400,15.0484033203125,9.600004196166992,1.0887342691421509,-0.11724831163883209
1765009600430367000,15.065366943359376,9.494720458984375,1.0671988725662231,-0.019142581149935722
1765009600447330300,15.082330322265625,9.494720458984375,1.038485050201416,0.038285162299871445
1765009600464294000,15.0992939453125,9.65503978729248,1.0911271572113037,-0.04307080805301666
1765009600481257200,15.11625732421875,9.671789169311523,1.0289137363433838,-0.12442677468061447
1765009600498220800,15.133220703125,9.722038269042969,0.9858429431915283,0.009571290574967861
1765009600515184000,15.15018408203125,9.714859962463379,0.9284151792526245,0.1052841991186142
1765009600532147700,15.167147705078126,9.734002113342285,0.8973084688186646,0.06939185410737991
1765009600549111300,15.184111328125,9.674181938171387,0.9978070259094238,-0.019142581149935722
1765009600566074600,15.20107470703125,9.549755096435547,0.9403793215751648,0.0023928226437419653
1765009600583038200,15.2180380859375,9.671789169311523,1.0049854516983032,0.09810572862625122
1765009600600001500,15.23500146484375,9.722038269042969,0.9667003750801086,0.07657032459974289
1765009600616965000,15.251965087890625,9.762716293334961,0.9858429431915283,0.06939185410737991
1765009600633928700,15.2689287109375,9.7005033493042,0.9786644577980042,0.031106693670153618
1765009600650892000,15.28589208984375,9.621540069580078,1.0217353105545044,-0.038285162299871445
1765009600667855600,15.302855712890626,9.657432556152344,1.0432707071304321,-0.04785645380616188
1765009600684819000,15.31981884765625,9.600004196166992,0.9786644577980042,-0.01196411345154047
1765009600701782500,15.336782470703126,9.66939640045166,0.9810572862625122,0.04546362906694412
1765009600718745900,15.353745849609375,9.710074424743652,0.9667003750801086,0.0023928226437419653
1765009600735709400,15.37070947265625,9.77707290649414,0.9571290612220764,-0.02871387079358101
1765009600752672800,15.3876728515625,9.734002113342285,0.9403793215751648,-0.0023928226437419653
1765009600769636400,15.40463623046875,9.729216575622559,0.9379864931106567,0.03349951654672623
1765009600786599700,15.421599609375,9.643074989318848,0.8781659007072449,0.12203395366668701
1765009600803563300,15.438563232421876,9.693324089050293,0.9020941257476807,0.1698904037475586
1765009600820526600,15.455526611328125,9.734002113342285,0.97148597240448,0.014356935396790504
1765009600837490200,15.472490234375,9.674181938171387,1.0217353105545044,-0.1052841991186142
1765009600854453800,15.489453857421875,9.590433120727539,1.0049854516983032,-0.06939185410737991
1765009600871417000,15.5064169921875,9.585647583007812,1.0169496536254883,0.05742774158716202
1765009600888380700,15.523380615234375,9.657432556152344,0.97148597240448,0.038285162299871445
1765009600905344000,15.540343994140626,9.753145217895508,0.9786644577980042,0.05742774158716202
1765009600922307600,15.5573076171875,9.760323524475098,0.9379864931106567,0.04785645380616188
1765009600939271000,15.57427099609375,9.659825325012207,0.9547362327575684,0.009571290574967861
1765009600956234500,15.591234375,9.626325607299805,0.9475577473640442,0.03349951654672623
1765009600973197800,15.60819775390625,9.623932838439941,0.9619147181510925,0.05742774158716202
1765009600990161400,15.625161376953125,9.781859397888184,0.9954141974449158,0
1765009601007125000,15.642125,9.657432556152344,0.9643075466156006,-0.01196411345154047
1765009601024088300,15.65908837890625,9.640682220458984,0.9954141974449158,0.01196411345154047
1765009601041052000,15.676052001953124,9.554540634155273,0.882951557636261,0.08614161610603333
1765009601058015200,15.69301513671875,9.645467758178711,0.973878800868988,0.0526420995593071
1765009601074978800,15.709978759765624,9.789037704467773,0.9762716293334961,-0.08614161610603333
1765009601091942400,15.7269423828125,9.762716293334961,0.9260223507881165,0.016749758273363113
