time,seconds_elapsed,z,y,x
1765009585515525400,0.150525390625,0,0,0
1765009585525525500,0.160525390625,-0.021387100219726562,-0.0038700103759765625,0.014402423053979874
1765009585535525400,0.170525390625,-0.024110794067382812,-0.005083918571472168,0.02477184496819973
1765009585545525500,0.180525390625,-0.013554573059082031,-0.009659290313720703,0.01568891853094101
1765009585555525400,0.190525390625,0.0025243759155273438,-0.0010936260223388672,0.0006446447223424911
1765009585565525500,0.200525390625,0.03493976593017578,0.0204390287399292,-0.015682736411690712
1765009585575525400,0.210525390625,0.050719261169433594,0.024706006050109863,-0.022504011169075966
1765009585585525500,0.220525390625,0.054772377014160156,0.01663947105407715,-0.05096125230193138
1765009585595525400,0.230525390625,0.04080677032470703,0.01614391803741455,-0.040741950273513794
1765009585605525500,0.240525390625,0.021221160888671875,0.024100065231323242,-0.032859522849321365
1765009585615525400,0.250525390625,-0.0075244903564453125,0.039949774742126465,-0.010397770442068577
1765009585625525500,0.260525390625,-0.05575847625732422,0.025046944618225098,-0.004350191913545132
1765009585635525400,0.270525390625,-0.02955150604248047,-0.005194425582885742,-0.02735559642314911
1765009585645525500,0.280525390625,-0.005105018615722656,-0.002262711524963379,-0.00030786264687776566
1765009585655525400,0.290525390625,-0.005900382995605469,0.004007577896118164,0.013594458810985088
1765009585665525500,0.300525390625,-0.003002166748046875,-0.00494694709777832,0.013195354491472244
1765009585675525400,0.310525390625,0.03330707550048828,-0.004539847373962402,0.0035523544065654278
1765009585685525500,0.320525390625,0.05045127868652344,-0.011110782623291016,0.006248096469789743
1765009585695525400,0.330525390625,0.034714698791503906,-0.0024683475494384766,0.0033398764207959175
1765009585705525500,0.340525390625,0.004380226135253906,-0.006192922592163086,-0.011545713059604168
1765009585715525400,0.350525390625,0.006173133850097656,0.0032410621643066406,-0.008322705514729023
1765009585725525500,0.360525390625,-0.012795448303222656,0.008406281471252441,-0.027379443868994713
1765009585735525400,0.370525390625,-0.029018402099609375,0.03260445594787598,-0.03605494648218155
1765009585745525500,0.380525390625,-0.015809059143066406,0.038954734802246094,-0.029409710317850113
1765009585755525400,0.390525390625,-0.009836196899414062,0.03643393516540527,-0.01504809781908989
1765009585765525500,0.400525390625,-0.0005617141723632812,0.028905630111694336,-0.0019041509367525578
1765009585775525400,0.410525390625,0.007320404052734375,0.003048539161682129,-0.0018269815482199192
1765009585785525500,0.420525390625,0.0058345794677734375,0.0011303424835205078,0.00730874203145504
1765009585795525400,0.430525390625,0.02097606658935547,-0.004559993743896484,0.008214919827878475
1765009585805525500,0.440525390625,-0.0069580078125,-0.005180478096008301,0.008779453113675117
1765009585815525400,0.450525390625,-0.011109352111816406,-0.006676793098449707,0.006042935885488987
1765009585825525500,0.460525390625,-0.0024080276489257812,-0.008365273475646973,0.02741476148366928
1765009585835525400,0.470525390625,0.00160980224609375,-0.013355731964111328,0.02845158614218235
1765009585845525500,0.480525390625,0.0032176971435546875,-0.004069685935974121,0.021909575909376144
1765009585855525400,0.490525390625,0.010684967041015625,0.010161042213439941,0.01464823167771101
1765009585865525500,0.500525390625,0.0005092620849609375,0.00880742073059082,0.007286800537258387
1765009585875525400,0.510525390625,-0.0044536590576171875,0.0024379491806030273,-0.016128934919834137
1765009585885525500,0.520525390625,0.024542808532714844,-0.0026633739471435547,-0.01672712154686451
1765009585895525400,0.530525390625,0.02615833282470703,-0.0006248950958251953,-0.01237314473837614
1765009585905525500,0.540525390625,0.034461021423339844,-0.011374473571777344,-0.016274062916636467
1765009585915525400,0.550525390625,0.023080825805664062,-0.007161140441894531,-0.0197845958173275
1765009585925525500,0.560525390625,0.026556015014648438,-0.021874308586120605,-0.014339901506900787
1765009585935525400,0.570525390625,0.017989158630371094,-0.014879226684570312,-0.018367689102888107
1765009585945525500,0.580525390625,-0.021475791931152344,-0.01569390296936035,-0.017227880656719208
1765009585955525400,0.590525390625,-0.022237777709960938,-0.002720355987548828,-0.028602462261915207
1765009585965525500,0.600525390625,-0.0054340362548828125,0.00835263729095459,-0.017711976543068886
1765009585975525400,0.610525390625,-0.022462844848632812,0.032771944999694824,-0.017309315502643585
1765009585985525500,0.620525390625,-0.018079757690429688,0.03653550148010254,-0.0030469284392893314
1765009585995525400,0.630525390625,-0.02559947967529297,0.03132975101470947,-0.017278145998716354
1765009586005525500,0.640525390625,-0.027782440185546875,0.022331714630126953,-0.01393461786210537
1765009586015525400,0.650525390625,-0.01357269287109375,0.011311173439025879,0.006398472469300032
1765009586025525500,0.660525390625,-0.008467674255371094,0.014803409576416016,0.00712861493229866
1765009586035525400,0.670525390625,-0.0028429031372070312,0.003657698631286621,0.01651230826973915
1765009586045525500,0.680525390625,0.014280319213867188,-0.0073087215423583984,0.024608632549643517
1765009586055525400,0.690525390625,0.010499000549316406,-0.01841259002685547,0.038584154099226
1765009586065525500,0.700525390625,0.011714935302734375,-0.02624368667602539,0.03273431584239006
1765009586075525400,0.710525390625,0.03126811981201172,-0.040183067321777344,0.02954253926873207
1765009586085525500,0.720525390625,0.03306293487548828,-0.022905468940734863,0.034323759377002716
1765009586095525400,0.730525390625,0.04587078094482422,-0.008203387260437012,0.023571114987134933
1765009586105525500,0.740525390625,0.05913352966308594,0.010969877243041992,0.0007718312554061413
1765009586115525400,0.750525390625,0.034935951232910156,0.027978897094726562,-0.00245108176022768
1765009586125525500,0.760525390625,0.0031747817993164062,0.03324747085571289,-0.024077849462628365
1765009586135525400,0.770525390625,-0.02484416961669922,0.02382504940032959,-0.03238704800605774
1765009586145525500,0.780525390625,-0.04127025604248047,0.016055822372436523,-0.05171092599630356
1765009586155525400,0.790525390625,-0.02589702606201172,0.009325861930847168,-0.05175565928220749
1765009586165525500,0.800525390625,-0.017274856567382812,0.012578129768371582,-0.05267317220568657
1765009586175525400,0.810525390625,0.01374053955078125,-0.018597960472106934,-0.047482386231422424
1765009586185525500,0.820525390625,0.035315513610839844,-0.02907586097717285,-0.03787725046277046
1765009586195525400,0.830525390625,0.046601295471191406,-0.03904318809509277,-0.02874431014060974
1765009586205525500,0.840525390625,0.05326366424560547,-0.03227877616882324,0.007253774907439947
1765009586215525400,0.850525390625,0.028855323791503906,-0.03526878356933594,0.0191643163561821
1765009586225525500,0.860525390625,-0.008909225463867188,-0.014068603515625,0.03351437300443649
1765009586235525400,0.870525390625,-0.010384559631347656,-0.009546041488647461,0.0417945459485054
1765009586245525500,0.880525390625,-0.0164642333984375,0.0046454668045043945,0.06124427914619446
1765009586255525400,0.890525390625,-0.017858505249023438,0.015746712684631348,0.050835151225328445
1765009586265525500,0.900525390625,-0.0021514892578125,0.02825033664703369,0.037220943719148636
1765009586275525400,0.910525390625,-0.0046291351318359375,0.0221787691116333,0.029706506058573723
1765009586285525500,0.920525390625,0.011676788330078125,0.024324774742126465,-0.00218458054587245
1765009586295525400,0.930525390625,0.016013145446777344,0.01978456974029541,-0.027601709589362144
1765009586305525500,0.940525390625,0.011277198791503906,0.006544351577758789,-0.02715209312736988
1765009586315525400,0.950525390625,0.008937835693359375,0.003275156021118164,-0.03031552955508232
1765009586325525500,0.960525390625,0.01970672607421875,0.0009833574295043945,-0.031151821836829185
1765009586335525400,0.970525390625,0.0069332122802734375,0.007618904113769531,-0.025183089077472687
1765009586345525500,0.980525390625,0.0006151199340820312,0.0006825923919677734,-0.004319495055824518
1765009586355525400,0.990525390625,-0.022475242614746094,0.011393427848815918,-0.0011906734434887767
1765009586365525500,1.000525390625,-0.015273094177246094,0.007544279098510742,0.0023594526574015617
1765009586375525400,1.010525390625,-0.011144638061523438,0.0034859180450439453,0.010859733447432518
1765009586385525500,1.020525390625,0.014031410217285156,0.0049391984939575195,0.01122874952852726
1765009586395525400,1.030525390625,0.015572547912597656,0.0005220174789428711,0.006358852609992027
1765009586405525500,1.040525390625,-0.0005064010620117188,0.005469083786010742,0.006102137733250856
1765009586415525400,1.050525390625,0.014515876770019531,0.009328961372375488,0.01011577993631363
1765009586425525500,1.060525390625,0.01796436309814453,-0.0036514997482299805,0.007748429663479328
1765009586435525400,1.070525390625,0.014451980590820312,-0.0031267404556274414,0.024541106075048447
1765009586445525500,1.080525390625,0.010867118835449219,-0.014891862869262695,0.026336319744586945
1765009586455525400,1.090525390625,-0.009141921997070312,-0.01211845874786377,0.007637302856892347
1765009586465525500,1.100525390625,-0.0287628173828125,-0.013792276382446289,0.005993142258375883
1765009586475525400,1.110525390625,-0.030826568603515625,-0.006811618804931641,-0.019946832209825516
1765009586485525500,1.120525390625,-0.025646209716796875,0.0053060054779052734,-0.022819846868515015
1765009586495525400,1.130525390625,-0.004729270935058594,0.01468801498413086,-0.027890808880329132
1765009586505525500,1.140525390625,-0.010232925415039062,0.027373790740966797,-0.05013931915163994
1765009586515525400,1.150525390625,-0.0012340545654296875,0.02112114429473877,-0.03778049349784851
1765009586525525500,1.160525390625,0.0070476531982421875,0.024912476539611816,-0.01936250552535057
1765009586535525400,1.170525390625,0.023062705993652344,0.006598830223083496,0.00341200758703053
1765009586545525500,1.180525390625,0.02306079864501953,-0.00044989585876464844,0.016505597159266472
1765009586555525400,1.190525390625,0.019880294799804688,-0.017367959022521973,0.019337167963385582
1765009586565525500,1.200525390625,-0.0007648468017578125,-0.02711045742034912,0.0038808011449873447
1765009586575525400,1.210525390625,-0.026042938232421875,-0.03694272041320801,-0.030292309820652008
1765009586585525500,1.220525390625,-0.011961936950683594,-0.0064656734466552734,-0.01676388829946518
1765009586595525400,1.230525390625,-0.010053634643554688,0.018453121185302734,-0.009319715201854706
1765009586605525500,1.240525390625,0.006197929382324219,0.01755547523498535,-0.017240101471543312
1765009586615525400,1.250525390625,0.0050048828125,0.02559518814086914,-0.008248823694884777
1765009586625525500,1.260525390625,0.008112907409667969,0.014156579971313477,-0.01012374833226204
1765009586635525400,1.270525390625,0.02308940887451172,0.012463569641113281,0.014657927677035332
1765009586645525500,1.280525390625,-0.024280548095703125,0.006906270980834961,-0.012859689071774483
1765009586655525400,1.290525390625,-0.04212379455566406,0.003464341163635254,-0.011727113276720047
1765009586665525500,1.300525390625,-0.029056549072265625,0.016968250274658203,0.015598608180880547
1765009586675525400,1.310525390625,-0.018934249877929688,0.028362154960632324,0.050209760665893555
1765009586685525500,1.320525390625,-0.0182037353515625,0.007273674011230469,0.05823497474193573
1765009586695525400,1.330525390625,-0.009304046630859375,0.00922858715057373,0.07831764221191406
1765009586705525500,1.340525390625,-0.017766952514648438,-0.02053987979888916,0.07426957786083221
1765009586715525400,1.350525390625,0.04291534423828125,-0.023898601531982422,0.036051079630851746
1765009586725525500,1.360525390625,-0.016905784606933594,-0.008399605751037598,0.04418662190437317
1765009586735525400,1.370525390625,-0.0020341873168945312,0.002477407455444336,-0.00142575241625309
1765009586745525500,1.380525390625,-0.06956005096435547,-0.010387063026428223,0.06371314823627472
1765009586755525400,1.390525390625,-0.020191192626953125,0.03873634338378906,-0.028328318148851395
1765009586765525500,1.400525390625,-0.11761760711669922,0.023041248321533203,0.025408795103430748
1765009586775525400,1.410525390625,-0.0053844451904296875,0.03473162651062012,-0.07460492104291916
1765009586785525500,1.420525390625,-0.0630655288696289,0.03426945209503174,-0.025611048564314842
1765009586795525400,1.430525390625,-0.005967140197753906,0.044791579246520996,-0.04108550399541855
1765009586805525500,1.440525390625,0.054915428161621094,0.06209981441497803,-0.036194007843732834
1765009586815525400,1.450525390625,0.023136138916015625,0.0691150426864624,-0.0025239307433366776
1765009586825525500,1.460525390625,-0.10054397583007812,0.040415048599243164,-0.010479270480573177
1765009586835525400,1.470525390625,-0.16568279266357422,0.06151258945465088,-0.07524197548627853
1765009586845525500,1.480525390625,-0.1514749526977539,0.06625330448150635,-0.07843295484781265
1765009586855525400,1.490525390625,-0.09413528442382812,0.09095495939254761,-0.0380396768450737
1765009586865525500,1.500525390625,-0.019675254821777344,0.10625004768371582,-0.02029648795723915
1765009586875525400,1.510525390625,0.07977008819580078,0.0663672685623169,-0.006427261978387833
1765009586885525500,1.520525390625,0.07624340057373047,0.03593873977661133,-0.013326991349458694
1765009586895525400,1.530525390625,0.07137680053710938,-0.024781346321105957,-0.041148968040943146
1765009586905525500,1.540525390625,0.048356056213378906,-0.06672769784927368,-0.01826101914048195
1765009586915525400,1.550525390625,0.06449604034423828,-0.01335841417312622,-0.04368836060166359
1765009586925525500,1.560525390625,0.014615058898925781,-0.007343649864196777,-0.006089863367378712
1765009586935525400,1.570525390625,0.04255867004394531,0.015910983085632324,-0.009663586504757404
1765009586945525500,1.580525390625,-0.006546974182128906,0.04156213998794556,0.02664267271757126
1765009586955525400,1.590525390625,-0.04311561584472656,0.07448220252990723,0.01035681739449501
1765009586965525500,1.600525390625,0.013842582702636719,0.05713677406311035,-0.04144514724612236
1765009586975525400,1.610525390625,-0.04735851287841797,0.04232972860336304,-0.07466211169958115
1765009586985525500,1.620525390625,-0.09397411346435547,-0.020160377025604248,-0.04065912216901779
1765009586995525400,1.630525390625,-0.11415481567382812,-0.05318254232406616,-0.02568114548921585
1765009587005525500,1.640525390625,0.020941734313964844,-0.05430489778518677,-0.039286158978939056
1765009587015525400,1.650525390625,0.07607555389404297,-0.06472694873809814,0.05824417248368263
1765009587025525500,1.660525390625,0.10830497741699219,-0.02482357621192932,0.040591903030872345
1765009587035525400,1.670525390625,0.13391590118408203,-0.04441845417022705,0.04087596759200096
1765009587045525500,1.680525390625,0.08184051513671875,-0.019603729248046875,-0.008355672471225262
1765009587055525400,1.690525390625,-0.0015363693237304688,0.007898509502410889,-0.05172647163271904
1765009587065525500,1.700525390625,0.07765769958496094,-0.00012022256851196289,-0.05512095242738724
1765009587075525400,1.710525390625,-0.0034360885620117188,0.028018534183502197,-0.03624927997589111
1765009587085525500,1.720525390625,-0.10052013397216797,0.08480755984783173,-0.07841706275939941
1765009587095525400,1.730525390625,-0.12273216247558594,0.13187648355960846,-0.07512304931879044
1765009587105525500,1.740525390625,-0.080841064453125,0.16783656179904938,0.0347784161567688
1765009587115525400,1.750525390625,-0.16344928741455078,0.21595539152622223,0.17928394675254822
1765009587125525500,1.760525390625,-0.2550058364868164,0.13020870089530945,0.07535793632268906
1765009587135525400,1.770525390625,-0.2445077896118164,-0.12426552176475525,-0.03495984524488449
1765009587145525500,1.780525390625,-0.19923019409179688,-0.1495106816291809,0.1531180441379547
1765009587155525400,1.790525390625,-0.1314525604248047,-0.02680988609790802,0.4113343358039856
1765009587165525500,1.800525390625,-0.07319450378417969,0.03506102412939072,0.47782641649246216
1765009587175525400,1.810525390625,-0.2342681884765625,0.015967130661010742,0.4960423409938812
1765009587185525500,1.820525390625,-0.2549018859863281,-0.03934520483016968,0.42735061049461365
1765009587195525400,1.830525390625,-0.08038616180419922,-0.11245551705360413,0.30478614568710327
1765009587205525500,1.840525390625,0.14711284637451172,-0.17407003045082092,0.23593097925186157
1765009587215525400,1.850525390625,0.27276134490966797,-0.1541995406150818,-0.023272760212421417
1765009587225525500,1.860525390625,0.30622100830078125,-0.06161928176879883,-0.2650794982910156
1765009587235525400,1.870525390625,0.4757719039916992,0.16089221835136414,-0.5595712661743164
1765009587245525500,1.880525390625,0.5065193176269531,0.2976742088794708,-0.7673454284667969
1765009587255525400,1.890525390625,0.38826942443847656,0.24365437030792236,-0.8650332689285278
1765009587265525500,1.900525390625,0.19003009796142578,0.08652102947235107,-0.9486777782440186
1765009587275525400,1.910525390625,0.13171672821044922,-0.013712584972381592,-0.71857088804245
1765009587285525500,1.920525390625,0.1959991455078125,-0.021999359130859375,-0.39513352513313293
1765009587295525400,1.930525390625,0.15527915954589844,-0.05718410015106201,-0.05699336528778076
1765009587305525500,1.940525390625,0.14434337615966797,-0.1584991216659546,0.176093190908432
1765009587315525400,1.950525390625,0.1959829330444336,-0.2648699879646301,0.4067530930042267
1765009587325525500,1.960525390625,0.27219676971435547,-0.3200494050979614,0.5786555409431458
1765009587335525400,1.970525390625,0.12915420532226562,-0.35939276218414307,0.5622234344482422
1765009587345525500,1.980525390625,0.10170650482177734,-0.3384038209915161,0.439044713973999
1765009587355525400,1.990525390625,0.10120296478271484,-0.2058926224708557,0.3555695414543152
1765009587365525500,2.000525390625,-0.01488494873046875,-0.040438294410705566,0.15016058087348938
1765009587375525400,2.010525390625,-0.1075906753540039,0.10927081108093262,-0.05441264063119888
1765009587385525500,2.020525390625,-0.12028217315673828,0.20337271690368652,-0.1779492199420929
1765009587395525400,2.030525390625,-0.0757761001586914,0.17508310079574585,-0.16190814971923828
1765009587405525500,2.040525390625,-0.039623260498046875,0.13193124532699585,-0.11992935836315155
1765009587415525400,2.050525390625,0.011068344116210938,0.08892357349395752,-0.014115042984485626
1765009587425525500,2.060525390625,0.03960895538330078,0.030722379684448242,0.06848743557929993
1765009587435525400,2.070525390625,0.028228759765625,-0.05210161209106445,0.023690812289714813
1765009587445525500,2.080525390625,0.11495494842529297,-0.12040716409683228,-0.006741762161254883
1765009587455525400,2.090525390625,0.1921215057373047,-0.1326923370361328,0.050977129489183426
1765009587465525500,2.100525390625,0.1836986541748047,-0.09925389289855957,0.14511829614639282
1765009587475525400,2.110525390625,0.14205360412597656,-0.08363044261932373,0.197279155254364
1765009587485525500,2.120525390625,0.051392555236816406,-0.08466744422912598,0.18879079818725586
1765009587495525400,2.130525390625,0.021879196166992188,-0.10505276918411255,0.15587007999420166
1765009587505525500,2.140525390625,0.08688068389892578,-0.10097372531890869,0.15574400126934052
1765009587515525400,2.150525390625,0.2779254913330078,-0.07321661710739136,0.1595577597618103
1765009587525525500,2.160525390625,0.5652475357055664,-0.06370902061462402,0.14483574032783508
1765009587535525400,2.170525390625,0.7829666137695312,-0.13574904203414917,-0.034347593784332275
1765009587545525500,2.180525390625,0.49436378479003906,-0.2045484185218811,-0.6065022945404053
1765009587555525400,2.190525390625,-0.051756858825683594,-0.08485645055770874,-0.7237467765808105
1765009587565525500,2.200525390625,-0.0903158187866211,0.043695688247680664,-0.48762044310569763
1765009587575525400,2.210525390625,-0.08639907836914062,-0.004414111375808716,-0.2819855809211731
1765009587585525500,2.220525390625,-0.28733348846435547,-0.07218427956104279,-0.04166460037231445
1765009587595525400,2.230525390625,-0.42292118072509766,-0.12116730213165283,0.1438898742198944
1765009587605525500,2.240525390625,-0.33749961853027344,-0.2198336124420166,0.1963857114315033
1765009587615525400,2.250525390625,-0.16758346557617188,-0.24721916019916534,0.19132307171821594
1765009587625525500,2.260525390625,0.043392181396484375,-0.13567450642585754,0.1984744369983673
1765009587635525400,2.270525390625,0.32941627502441406,-0.0010685399174690247,0.19689293205738068
1765009587645525500,2.280525390625,0.6700277328491211,0.02816767990589142,0.1539294272661209
1765009587655525400,2.290525390625,0.8427009582519531,-0.030123114585876465,0.10738730430603027
1765009587665525500,2.300525390625,1.0105905532836914,-0.16069144010543823,0.09539469331502914
1765009587675525400,2.310525390625,0.8655815124511719,-0.3312768340110779,0.06696125864982605
1765009587685525500,2.320525390625,0.5346040725708008,-0.4106581509113312,0.008316371589899063
1765009587695525400,2.330525390625,0.12358951568603516,-0.4607749879360199,-0.09446479380130768
1765009587705525500,2.340525390625,-0.2760038375854492,-0.4138237237930298,-0.17540141940116882
1765009587715525400,2.350525390625,-0.5925226211547852,-0.23620396852493286,-0.08000776916742325
1765009587725525500,2.360525390625,-0.8713779449462891,-0.0739743709564209,-0.017426803708076477
1765009587735525400,2.370525390625,-1.0499687194824219,-0.005071520805358887,-0.024293646216392517
1765009587745525500,2.380525390625,-1.108449935913086,0.07586634159088135,-0.039744190871715546
1765009587755525400,2.390525390625,-0.9123849868774414,0.1780407428741455,-0.018257156014442444
1765009587765525500,2.400525390625,-0.45830726623535156,0.3137286901473999,-0.012087382376194
1765009587775525400,2.410525390625,0.038234710693359375,0.3318394422531128,-0.02430865168571472
1765009587785525500,2.420525390625,0.3380613327026367,0.16584455966949463,-0.12838423252105713
1765009587795525400,2.430525390625,0.4554252624511719,-0.031598448753356934,-0.17444667220115662
1765009587805525500,2.440525390625,0.3696269989013672,-0.11622929573059082,-0.08561795204877853
1765009587815525400,2.450525390625,0.20153236389160156,-0.10948717594146729,0.1025073230266571
1765009587825525500,2.460525390625,0.06336688995361328,-0.06189990043640137,0.24027131497859955
1765009587835525400,2.470525390625,-0.1298971176147461,-0.13921904563903809,0.24417556822299957
1765009587845525500,2.480525390625,-0.20768165588378906,-0.18915057182312012,0.1989472657442093
1765009587855525400,2.490525390625,-0.2525005340576172,-0.19016003608703613,0.18670062720775604
1765009587865525500,2.500525390625,-0.2435741424560547,-0.12028586864471436,0.19087447226047516
1765009587875525400,2.510525390625,-0.13788604736328125,-0.08063435554504395,0.19506309926509857
1765009587885525500,2.520525390625,-0.08182525634765625,-0.014005303382873535,0.09712404012680054
1765009587895525400,2.530525390625,-0.1827716827392578,0.07980203628540039,-0.03132614493370056
1765009587905525500,2.540525390625,-0.24853038787841797,0.08349466323852539,-0.07358087599277496
1765009587915525400,2.550525390625,-0.23064231872558594,0.0938866138458252,-0.09426642209291458
1765009587925525500,2.560525390625,-0.2603883743286133,0.04903697967529297,-0.09466569125652313
1765009587935525400,2.570525390625,-0.23563766479492188,0.05966806411743164,-0.08054879307746887
1765009587945525500,2.580525390625,-0.04663562774658203,0.14115095138549805,-0.13647246360778809
1765009587955525400,2.590525390625,0.11226177215576172,0.12612295150756836,-0.15364304184913635
1765009587965525500,2.600525390625,0.15112686157226562,0.0475156307220459,-0.18216323852539062
1765009587975525400,2.610525390625,0.11942863464355469,-0.09063577651977539,-0.16203400492668152
1765009587985525500,2.620525390625,0.25660133361816406,-0.13486623764038086,-0.055223628878593445
1765009587995525400,2.630525390625,0.2044363021850586,-0.10603213310241699,0.041255757212638855
1765009588005525500,2.640525390625,-0.028192520141601562,-0.11912727355957031,0.06624753773212433
1765009588015525400,2.650525390625,-0.22681236267089844,-0.11783719062805176,0.061085909605026245
1765009588025525500,2.660525390625,-0.39031505584716797,-0.09988117218017578,0.04502996802330017
1765009588035525400,2.670525390625,-0.49770355224609375,-0.13136935234069824,0.048607826232910156
1765009588045525500,2.680525390625,-0.41764163970947266,-0.1114664077758789,0.05561909079551697
1765009588055525400,2.690525390625,-0.3833789825439453,-0.08829426765441895,0.09765918552875519
1765009588065525500,2.700525390625,-0.30690670013427734,-0.021198749542236328,0.146283358335495
1765009588075525400,2.710525390625,0.4244518280029297,0.1129918098449707,0.1283370703458786
1765009588085525500,2.720525390625,0.7758712768554688,0.1522965431213379,0.020123213529586792
1765009588095525400,2.730525390625,0.6154394149780273,-0.005840778350830078,-0.05664389207959175
1765009588105525500,2.740525390625,0.23591327667236328,-0.18428611755371094,-0.11933988332748413
1765009588115525400,2.750525390625,-0.12678050994873047,-0.266193151473999,-0.12844380736351013
1765009588125525500,2.760525390625,-0.4059410095214844,-0.25704145431518555,-0.08588157594203949
1765009588135525400,2.770525390625,-0.5923366546630859,-0.1955399513244629,0.023973405361175537
1765009588145525500,2.780525390625,-0.7285194396972656,-0.12517166137695312,0.12439735233783722
1765009588155525400,2.790525390625,-0.7614841461181641,-0.08130764961242676,0.16881321370601654
1765009588165525500,2.800525390625,-0.7239456176757812,-0.01666402816772461,0.17903004586696625
1765009588175525400,2.810525390625,-0.612091064453125,0.06624269485473633,0.18738657236099243
1765009588185525500,2.820525390625,-0.595550537109375,0.07790541648864746,0.12072117626667023
1765009588195525400,2.830525390625,-0.589472770690918,0.08570432662963867,0.04742448031902313
1765009588205525500,2.840525390625,-0.5335855484008789,0.08097648620605469,-0.020698487758636475
1765009588215525400,2.850525390625,-0.4687023162841797,0.03385019302368164,-0.036045536398887634
1765009588225525500,2.860525390625,-0.3829803466796875,0.03658437728881836,0.007405906915664673
1765009588235525400,2.870525390625,-0.35218048095703125,0.05899667739868164,0.08375348150730133
1765009588245525500,2.880525390625,-0.30108642578125,0.04909038543701172,0.12041808664798737
1765009588255525400,2.890525390625,-0.21820354461669922,0.029346466064453125,0.10812823474407196
1765009588265525500,2.900525390625,-0.2899208068847656,0.030275344848632812,0.08119681477546692
1765009588275525400,2.910525390625,-0.4196481704711914,0.013155221939086914,0.039162471890449524
1765009588285525500,2.920525390625,-0.5161342620849609,-0.02234363555908203,0.03824387490749359
1765009588295525400,2.930525390625,-0.5578193664550781,-0.0006549358367919922,0.043046191334724426
1765009588305525500,2.940525390625,-0.5772027969360352,0.05982065200805664,0.04615311324596405
1765009588315525400,2.950525390625,-0.5811529159545898,0.08536219596862793,0.040559396147727966
1765009588325525500,2.960525390625,-0.6975259780883789,0.10505175590515137,-0.045567452907562256
1765009588335525400,2.970525390625,-0.9384956359863281,0.04478025436401367,-0.03842166066169739
1765009588345525500,2.980525390625,-0.8337860107421875,0.06854391098022461,0.01789720356464386
1765009588355525400,2.990525390625,-0.4887571334838867,0.07508516311645508,0.06003159284591675
1765009588365525500,3.000525390625,-0.09163379669189453,0.06260013580322266,0.07664473354816437
1765009588375525400,3.010525390625,0.3437690734863281,0.12959527969360352,0.0778704434633255
1765009588385525500,3.020525390625,0.6134138107299805,0.22930240631103516,0.06501801311969757
1765009588395525400,3.030525390625,0.6785755157470703,0.2493128776550293,0.02902074158191681
1765009588405525500,3.040525390625,0.4212799072265625,0.1505427360534668,0.013675093650817871
1765009588415525400,3.050525390625,0.1737213134765625,0.04035520553588867,0.03160162270069122
1765009588425525500,3.060525390625,-0.007609367370605469,-0.014934897422790527,0.12397240102291107
1765009588435525400,3.070525390625,-0.16373443603515625,-0.031088590621948242,0.18754111230373383
1765009588445525500,3.080525390625,-0.18233871459960938,-0.00831592082977295,0.18282870948314667
1765009588455525400,3.090525390625,0.0016927719116210938,0.054369330406188965,0.1419983208179474
1765009588465525500,3.100525390625,0.22282886505126953,0.1558701992034912,0.08849506080150604
1765009588475525400,3.110525390625,0.4047727584838867,0.16174936294555664,-0.008601117879152298
1765009588485525500,3.120525390625,0.36116886138916016,0.1450432538986206,-0.1947478950023651
1765009588495525400,3.130525390625,0.2707500457763672,0.16597771644592285,-0.28175976872444153
1765009588505525500,3.140525390625,0.09815788269042969,0.239355206489563,-0.335334837436676
1765009588515525400,3.150525390625,-0.036590576171875,0.3527339696884155,-0.47413185238838196
1765009588525525500,3.160525390625,-0.0650787353515625,0.2722839117050171,-0.46406686305999756
1765009588535525400,3.170525390625,-0.0985879898071289,0.1408928632736206,-0.33542776107788086
1765009588545525500,3.180525390625,-0.27960968017578125,0.026723146438598633,-0.17575550079345703
1765009588555525400,3.190525390625,-0.3154621124267578,-0.037953197956085205,-0.04912559688091278
1765009588565525500,3.200525390625,-0.3121042251586914,-0.0833631157875061,0.046989258378744125
1765009588575525400,3.210525390625,-0.3257865905761719,-0.017066001892089844,0.08004821836948395
1765009588585525500,3.220525390625,-0.19797515869140625,-0.00699305534362793,0.141182079911232
1765009588595525400,3.230525390625,0.009732246398925781,0.018875837326049805,0.1915646195411682
1765009588605525500,3.240525390625,0.12328338623046875,0.06220722198486328,0.35915082693099976
1765009588615525400,3.250525390625,0.08064460754394531,0.1709294617176056,0.44616076350212097
1765009588625525500,3.260525390625,-0.11348342895507812,0.20695585012435913,0.2588558495044708
1765009588635525400,3.270525390625,-0.1259603500366211,0.07462169229984283,0.049025073647499084
1765009588645525500,3.280525390625,-0.07416915893554688,-0.059817586094141006,-0.054323263466358185
1765009588655525400,3.290525390625,-0.0598907470703125,-0.15122705698013306,-0.08661429584026337
1765009588665525500,3.300525390625,-0.13918590545654297,-0.19870784878730774,-0.23900146782398224
1765009588675525400,3.310525390625,-0.2141571044921875,-0.18768087029457092,-0.45235833525657654
1765009588685525500,3.320525390625,-0.28650665283203125,-0.03979259729385376,-0.6259678602218628
1765009588695525400,3.330525390625,-0.30248165130615234,0.08656808733940125,-0.7715978026390076
1765009588705525500,3.340525390625,-0.11154651641845703,0.13811558485031128,-0.7302411198616028
1765009588715525400,3.350525390625,0.12170124053955078,0.12878024578094482,-0.4568946361541748
1765009588725525500,3.360525390625,0.23348522186279297,0.14598077535629272,-0.05000128597021103
1765009588735525400,3.370525390625,0.3704948425292969,0.052284061908721924,0.3259265422821045
1765009588745525500,3.380525390625,0.3520469665527344,-0.11522495746612549,0.4791885316371918
1765009588755525400,3.390525390625,0.38149070739746094,-0.23940038681030273,0.565829336643219
1765009588765525500,3.400525390625,0.4333667755126953,-0.2832968235015869,0.6501359343528748
1765009588775525400,3.410525390625,0.2619791030883789,-0.3113461136817932,0.44644486904144287
1765009588785525500,3.420525390625,0.06913089752197266,-0.3006845712661743,0.24382109940052032
1765009588795525400,3.430525390625,0.00787353515625,-0.16127413511276245,0.2005431354045868
1765009588805525500,3.440525390625,-0.004895210266113281,0.06238585710525513,0.08603034168481827
1765009588815525400,3.450525390625,-0.08510684967041016,0.1898956298828125,-0.020477181300520897
1765009588825525500,3.460525390625,-0.1726856231689453,0.18386304378509521,-0.13124892115592957
1765009588835525400,3.470525390625,-0.13050079345703125,0.1323453187942505,-0.05475110560655594
1765009588845525500,3.480525390625,-0.05350208282470703,0.16357046365737915,0.13249129056930542
1765009588855525400,3.490525390625,-0.030103683471679688,0.18562614917755127,0.2991378605365753
1765009588865525500,3.500525390625,-0.13619422912597656,0.11957383155822754,0.29466456174850464
1765009588875525400,3.510525390625,-0.0780038833618164,0.05011332035064697,0.28457650542259216
1765009588885525500,3.520525390625,-0.013663291931152344,-0.03712451457977295,0.25279223918914795
1765009588895525400,3.530525390625,0.1180276870727539,-0.13280892372131348,0.2659033536911011
1765009588905525500,3.540525390625,0.1893444061279297,-0.20986950397491455,0.28987446427345276
1765009588915525400,3.550525390625,0.25095176696777344,-0.22144043445587158,0.20873688161373138
1765009588925525500,3.560525390625,0.35418701171875,-0.2144871950149536,0.1838790774345398
1765009588935525400,3.570525390625,0.3682422637939453,-0.16399657726287842,0.08246724307537079
1765009588945525500,3.580525390625,0.25673580169677734,-0.09758710861206055,-0.09449021518230438
1765009588955525400,3.590525390625,0.16661834716796875,-0.03414726257324219,-0.21516603231430054
1765009588965525500,3.600525390625,0.08454132080078125,0.05101323127746582,-0.2871065139770508
1765009588975525400,3.610525390625,0.03329658508300781,0.04079592227935791,-0.3699549734592438
1765009588985525500,3.620525390625,0.0878152847290039,0.033702850341796875,-0.47692766785621643
1765009588995525400,3.630525390625,0.20317649841308594,0.06116509437561035,-0.42494997382164
1765009589005525500,3.640525390625,0.28514862060546875,0.08508169651031494,-0.2524940073490143
1765009589015525400,3.650525390625,0.249786376953125,0.04024863243103027,-0.12314781546592712
1765009589025525500,3.660525390625,0.13471508026123047,-0.06188929080963135,-0.06965218484401703
1765009589035525400,3.670525390625,0.04441261291503906,-0.11093783378601074,0.01140788197517395
1765009589045525500,3.680525390625,0.007149696350097656,-0.10574460029602051,0.13723650574684143
1765009589055525400,3.690525390625,-0.029674530029296875,-0.07884681224822998,0.167300283908844
1765009589065525500,3.700525390625,-0.009490966796875,-0.09046471118927002,0.17089244723320007
1765009589075525400,3.710525390625,-0.013858795166015625,-0.039258480072021484,0.14461785554885864
1765009589085525500,3.720525390625,-0.20058059692382812,-0.01425778865814209,0.05935419350862503
1765009589095525400,3.730525390625,-0.260345458984375,-0.05008244514465332,-0.01842041313648224
1765009589105525500,3.740525390625,-0.10834312438964844,-0.046179771423339844,-0.04949183017015457
1765009589115525400,3.750525390625,-0.056118011474609375,0.009721636772155762,-0.008810460567474365
1765009589125525500,3.760525390625,0.03175544738769531,0.013596892356872559,0.03066975623369217
1765009589135525400,3.770525390625,0.09489631652832031,-0.008134663105010986,-0.05938904732465744
1765009589145525500,3.780525390625,0.13118553161621094,-0.08269298076629639,-0.18594783544540405
1765009589155525400,3.790525390625,0.1680450439453125,-0.07795238494873047,-0.22576987743377686
1765009589165525500,3.800525390625,0.28916072845458984,-0.1057271957397461,-0.22801536321640015
1765009589175525400,3.810525390625,0.31847381591796875,-0.15863829851150513,-0.2431032359600067
1765009589185525500,3.820525390625,0.3178253173828125,-0.22964727878570557,-0.25435441732406616
1765009589195525400,3.830525390625,0.25707054138183594,-0.2194807231426239,-0.2782008945941925
1765009589205525500,3.840525390625,0.11034202575683594,-0.17561659216880798,-0.2520406246185303
1765009589215525400,3.850525390625,-0.020673751831054688,-0.06289830803871155,-0.13762886822223663
1765009589225525500,3.860525390625,-0.06795597076416016,-0.040445297956466675,-0.0523579940199852
1765009589235525400,3.870525390625,-0.06992244720458984,-0.0818900316953659,0.03954517841339111
1765009589245525500,3.880525390625,-0.08124065399169922,-0.10033676028251648,0.09524913877248764
1765009589255525400,3.890525390625,-0.08835601806640625,-0.09593895077705383,0.151742622256279
1765009589265525500,3.900525390625,0.09639358520507812,-0.097954660654068,0.12800276279449463
1765009589275525400,3.910525390625,0.2559213638305664,-0.17718738317489624,0.04055256396532059
1765009589285525500,3.920525390625,0.4449186325073242,-0.24927063286304474,-0.007719054818153381
1765009589295525400,3.930525390625,0.5118751525878906,-0.1441347897052765,-0.09772613644599915
1765009589305525500,3.940525390625,0.3488025665283203,-0.05139768123626709,-0.127761572599411
1765009589315525400,3.950525390625,0.041260719299316406,-0.02384340763092041,0.018321558833122253
1765009589325525500,3.960525390625,-0.14937782287597656,-0.22502171993255615,0.18025878071784973
1765009589335525400,3.970525390625,-0.34504127502441406,-0.37759697437286377,0.287728488445282
1765009589345525500,3.980525390625,-0.569549560546875,-0.2513163089752197,0.40731170773506165
1765009589355525400,3.990525390625,-0.6791896820068359,-0.029099583625793457,0.48273754119873047
1765009589365525500,4.000525390625,-0.3640251159667969,0.15588486194610596,0.4230254888534546
1765009589375525400,4.010525390625,-0.24930477142333984,0.13000237941741943,0.2680458426475525
1765009589385525500,4.020525390625,-0.23699283599853516,0.005938291549682617,0.05011655390262604
1765009589395525400,4.030525390625,-0.034651756286621094,-0.10013806819915771,-0.15731433033943176
1765009589405525500,4.040525390625,0.18190383911132812,-0.18084776401519775,-0.2670566439628601
1765009589415525400,4.050525390625,0.3072843551635742,-0.18359172344207764,-0.22237953543663025
1765009589425525500,4.060525390625,0.16427993774414062,-0.05387616157531738,-0.11821653693914413
1765009589435525400,4.070525390625,-0.23282146453857422,-0.04146265983581543,-0.21792662143707275
1765009589445525500,4.080525390625,-0.44269466400146484,-0.13183772563934326,-0.2263009399175644
1765009589455525400,4.090525390625,-0.5588598251342773,-0.13512182235717773,-0.14360854029655457
1765009589465525500,4.100525390625,-0.6386070251464844,-0.09300994873046875,0.036104485392570496
1765009589475525400,4.110525390625,-0.47173118591308594,-0.03575611114501953,0.18516439199447632
1765009589485525500,4.120525390625,-0.20282840728759766,-0.0033206939697265625,0.19531559944152832
1765009589495525400,4.130525390625,-0.06211090087890625,-0.0416109561920166,0.18885575234889984
1765009589505525500,4.140525390625,0.06755828857421875,-0.10701131820678711,0.13890159130096436
1765009589515525400,4.150525390625,0.12300777435302734,-0.1522996425628662,0.077277272939682
1765009589525525500,4.160525390625,0.13381099700927734,-0.10539460182189941,0.01997312903404236
1765009589535525400,4.170525390625,0.22597122192382812,-0.08526468276977539,-0.10183367133140564
1765009589545525500,4.180525390625,0.09195327758789062,-0.12627196311950684,-0.21159322559833527
1765009589555525400,4.190525390625,-0.0012083053588867188,-0.14433002471923828,-0.2562711834907532
1765009589565525500,4.200525390625,-0.0706167221069336,-0.14340782165527344,-0.2751697301864624
1765009589575525400,4.210525390625,-0.007288932800292969,-0.09799313545227051,-0.22910962998867035
1765009589585525500,4.220525390625,0.0024633407592773438,-0.0400240421295166,-0.23526667058467865
1765009589595525400,4.230525390625,-0.21617698669433594,-0.07323789596557617,-0.18528999388217926
1765009589605525500,4.240525390625,-0.29270267486572266,-0.060468435287475586,-0.04458501935005188
1765009589615525400,4.250525390625,-0.39208316802978516,-0.046976327896118164,0.13369879126548767
1765009589625525500,4.260525390625,-0.4483833312988281,-0.08802223205566406,0.27327704429626465
1765009589635525400,4.270525390625,-0.34928321838378906,-0.04194474220275879,0.369099885225296
1765009589645525500,4.280525390625,-0.3806886672973633,-0.04021644592285156,0.4436165988445282
1765009589655525400,4.290525390625,-0.3209047317504883,-0.05735516548156738,0.4479161500930786
1765009589665525500,4.300525390625,-0.2261648178100586,-0.07756423950195312,0.42480161786079407
1765009589675525400,4.310525390625,-0.09852409362792969,-0.0877995491027832,0.4381082057952881
1765009589685525500,4.320525390625,0.057952880859375,-0.09378528594970703,0.4433665871620178
1765009589695525400,4.330525390625,0.14116477966308594,-0.14795708656311035,0.3934474587440491
1765009589705525500,4.340525390625,0.13699817657470703,-0.17495036125183105,0.30728471279144287
1765009589715525400,4.350525390625,0.19829750061035156,-0.15285634994506836,0.21516430377960205
1765009589725525500,4.360525390625,0.1476907730102539,-0.16319656372070312,0.13620322942733765
1765009589735525400,4.370525390625,0.27861499786376953,-0.19126653671264648,0.1278718113899231
1765009589745525500,4.380525390625,0.056670188903808594,-0.14497804641723633,0.00844794511795044
1765009589755525400,4.390525390625,-0.38381195068359375,-0.14951372146606445,-0.2137148380279541
1765009589765525500,4.400525390625,-0.6526775360107422,-0.2328352928161621,-0.3213520646095276
1765009589775525400,4.410525390625,-0.8567509651184082,-0.20839452743530273,-0.23047521710395813
1765009589785525500,4.420525390625,-1.0222845077514648,-0.08916521072387695,-0.10300689935684204
1765009589795525400,4.430525390625,-1.1328020095825195,0.041974544525146484,-0.03936362266540527
1765009589805525500,4.440525390625,-1.0443058013916016,0.14308452606201172,0.01883375644683838
1765009589815525400,4.450525390625,-0.7744951248168945,0.2682833671569824,0.07851576805114746
1765009589825525500,4.460525390625,-0.6465187072753906,0.298123836517334,0.009547114372253418
1765009589835525400,4.470525390625,-0.6716861724853516,0.1282052993774414,0.01873260736465454
1765009589845525500,4.480525390625,-0.594172477722168,-0.04694652557373047,0.034989893436431885
1765009589855525400,4.490525390625,-0.5370206832885742,-0.08147811889648438,0.10639190673828125
1765009589865525500,4.500525390625,-0.6090726852416992,-0.05828046798706055,0.2181839942932129
1765009589875525400,4.510525390625,-0.7156858444213867,-0.04761934280395508,0.2103099822998047
1765009589885525500,4.520525390625,-0.8665580749511719,-0.11915159225463867,0.1233820915222168
1765009589895525400,4.530525390625,-0.8777437210083008,-0.17040395736694336,0.0737658143043518
1765009589905525500,4.540525390625,-0.9335622787475586,-0.15581250190734863,-0.021002382040023804
1765009589915525400,4.550525390625,-0.8571710586547852,-0.027326583862304688,-0.09347200393676758
1765009589925525500,4.560525390625,0.02639484405517578,0.1514909267425537,-0.1420496702194214
1765009589935525400,4.570525390625,0.5045289993286133,0.2886481285095215,-0.17821064591407776
1765009589945525500,4.580525390625,0.4246511459350586,0.27673768997192383,-0.20828548073768616
1765009589955525400,4.590525390625,0.29038429260253906,0.117095947265625,-0.21049050986766815
1765009589965525500,4.600525390625,0.20076751708984375,-0.046646833419799805,-0.17745399475097656
1765009589975525400,4.610525390625,-0.03728199005126953,-0.13904261589050293,-0.10683253407478333
1765009589985525500,4.620525390625,-0.4267253875732422,-0.23559045791625977,-0.05199480056762695
1765009589995525400,4.630525390625,-0.9251556396484375,-0.24898529052734375,0.11829650402069092
1765009590005525500,4.640525390625,-1.3491544723510742,-0.1495063304901123,0.3089039921760559
1765009590015525400,4.650525390625,-1.5850977897644043,-0.05160355567932129,0.4324650168418884
1765009590025525500,4.660525390625,-1.5236196517944336,0.011273860931396484,0.5012028813362122
1765009590035525400,4.670525390625,-1.2652959823608398,-0.059433698654174805,0.38111966848373413
1765009590045525500,4.680525390625,-0.8970737457275391,-0.11629056930541992,0.24603113532066345
1765009590055525400,4.690525390625,-0.4614677429199219,-0.11472296714782715,0.23234468698501587
1765009590065525500,4.700525390625,0.08048343658447266,0.030200958251953125,0.229345440864563
1765009590075525400,4.710525390625,0.8333444595336914,0.11419796943664551,0.18133294582366943
1765009590085525500,4.720525390625,1.4920330047607422,0.09823393821716309,0.121501624584198
1765009590095525400,4.730525390625,1.820455551147461,0.05600309371948242,0.03998503088951111
1765009590105525500,4.740525390625,1.7878665924072266,-0.02511918544769287,-0.037929028272628784
1765009590115525400,4.750525390625,1.5026559829711914,-0.10205066204071045,-0.1316271871328354
1765009590125525500,4.760525390625,1.1410245895385742,-0.057274818420410156,-0.2307041585445404
1765009590135525400,4.770525390625,0.7045392990112305,-0.07253038883209229,-0.23878659307956696
1765009590145525500,4.780525390625,0.20423412322998047,-0.08679032325744629,-0.2748083770275116
1765009590155525400,4.790525390625,-0.25037288665771484,-0.03997528553009033,-0.30287614464759827
1765009590165525500,4.800525390625,-0.6536760330200195,-0.013911962509155273,-0.25753819942474365
1765009590175525400,4.810525390625,-0.8563375473022461,0.14464306831359863,-0.15335220098495483
1765009590185525500,4.820525390625,-0.643803596496582,0.47869062423706055,-0.05202627182006836
1765009590195525400,4.830525390625,-0.772852897644043,0.5654340982437134,0.018494486808776855
1765009590205525500,4.840525390625,-0.2848396301269531,0.5156278610229492,-0.00341719388961792
1765009590215525400,4.850525390625,0.057196617126464844,0.3161228895187378,0.042224496603012085
1765009590225525500,4.860525390625,0.38549327850341797,0.16287875175476074,0.06516414880752563
1765009590235525400,4.870525390625,0.5230417251586914,0.07966458797454834,0.0865306705236435
1765009590245525500,4.880525390625,0.5916509628295898,0.0200347900390625,0.07294705510139465
1765009590255525400,4.890525390625,0.4191598892211914,-0.012364864349365234,0.06588128209114075
1765009590265525500,4.900525390625,0.22057723999023438,-0.09747648239135742,0.08614706993103027
1765009590275525400,4.910525390625,-0.02081012725830078,-0.19887316226959229,0.09328150749206543
1765009590285525500,4.920525390625,-0.22361469268798828,-0.23827290534973145,0.10037966072559357
1765009590295525400,4.930525390625,-0.32001590728759766,-0.21592283248901367,0.11674599349498749
1765009590305525500,4.940525390625,-0.3213472366333008,-0.14086055755615234,0.0793684870004654
1765009590315525400,4.950525390625,-0.238800048828125,-0.06131303310394287,-0.009874068200588226
1765009590325525500,4.960525390625,-0.13477516174316406,0.03394031524658203,-0.06518354266881943
1765009590335525400,4.970525390625,-0.0059642791748046875,0.058104515075683594,-0.09149923920631409
1765009590345525500,4.980525390625,0.0294036865234375,0.020181775093078613,-0.19590717554092407
1765009590355525400,4.990525390625,-0.025888442993164062,0.04340660572052002,-0.21283812820911407
1765009590365525500,5.000525390625,-0.07735347747802734,0.10589909553527832,-0.1482970118522644
1765009590375525400,5.010525390625,-0.16425323486328125,0.13690990209579468,0.007760196924209595
1765009590385525500,5.020525390625,-0.21367835998535156,-0.005613088607788086,0.1813187599182129
1765009590395525400,5.030525390625,-0.14194583892822266,-0.08182185888290405,0.29992908239364624
1765009590405525500,5.040525390625,0.00186920166015625,0.059884071350097656,0.27604538202285767
1765009590415525400,5.050525390625,0.13301563262939453,0.161821186542511,0.18363994359970093
1765009590425525500,5.060525390625,0.17910099029541016,0.1621226668357849,0.027271077036857605
1765009590435525400,5.070525390625,0.11087417602539062,0.12553435564041138,-0.10000400245189667
1765009590445525500,5.080525390625,0.06834030151367188,0.10648512840270996,-0.12490472197532654
1765009590455525400,5.090525390625,0.02074718475341797,0.09057736396789551,-0.1259644329547882
1765009590465525500,5.100525390625,-0.0019807815551757812,0.08218687772750854,-0.09174060076475143
1765009590475525400,5.110525390625,-0.011565208435058594,0.08973109722137451,-0.03992754966020584
1765009590485525500,5.120525390625,-0.015347480773925781,0.08376353979110718,-0.005331546068191528
1765009590495525400,5.130525390625,-0.013971328735351562,0.06929188966751099,0.024988755583763123
1765009590505525500,5.140525390625,-0.017523765563964844,0.03931397199630737,0.055386126041412354
1765009590515525400,5.150525390625,-0.0030155181884765625,-0.01496201753616333,0.07012860476970673
1765009590525525500,5.160525390625,0.04365730285644531,-0.07022994756698608,0.09899027645587921
1765009590535525400,5.170525390625,0.08167648315429688,-0.1103166937828064,0.12340205162763596
1765009590545525500,5.180525390625,0.12767505645751953,-0.14555466175079346,0.11493130028247833
1765009590555525400,5.190525390625,0.1941070556640625,-0.18553942441940308,0.10296360403299332
1765009590565525500,5.200525390625,0.26476478576660156,-0.2294827699661255,0.07579430192708969
1765009590575525400,5.210525390625,0.2955045700073242,-0.27596908807754517,0.014900483191013336
1765009590585525500,5.220525390625,0.2752714157104492,-0.2965617775917053,-0.03655494749546051
1765009590595525400,5.230525390625,0.2081766128540039,-0.27154427766799927,-0.0592007115483284
1765009590605525500,5.240525390625,0.12228870391845703,-0.22106319665908813,-0.046772561967372894
1765009590615525400,5.250525390625,0.025063514709472656,-0.17361682653427124,-0.007530868053436279
1765009590625525500,5.260525390625,-0.08126354217529297,-0.13096308708190918,0.037294551730155945
1765009590635525400,5.270525390625,-0.21300315856933594,-0.09341514110565186,0.05471990257501602
1765009590645525500,5.280525390625,-0.3678731918334961,-0.04457664489746094,0.061030708253383636
1765009590655525400,5.290525390625,-0.49683094024658203,0.027530431747436523,0.05837384611368179
1765009590665525500,5.300525390625,-0.5580368041992188,0.10784482955932617,0.05070255696773529
1765009590675525400,5.310525390625,-0.5361795425415039,0.16428661346435547,0.013902463018894196
1765009590685525500,5.320525390625,-0.47084712982177734,0.18959105014801025,-0.04724039137363434
1765009590695525400,5.330525390625,-0.34698009490966797,0.19000768661499023,-0.10842527449131012
1765009590705525500,5.340525390625,-0.19128894805908203,0.18058562278747559,-0.12801706790924072
1765009590715525400,5.350525390625,-0.030364990234375,0.1276381015777588,-0.10834386944770813
1765009590725525500,5.360525390625,0.09762859344482422,0.05673801898956299,-0.07163366675376892
1765009590735525400,5.370525390625,0.18001174926757812,-0.026019811630249023,-0.008958190679550171
1765009590745525500,5.380525390625,0.21167850494384766,-0.10013270378112793,0.07345686107873917
1765009590755525400,5.390525390625,0.21122169494628906,-0.16312211751937866,0.16035321354866028
1765009590765525500,5.400525390625,0.1856393814086914,-0.1989274024963379,0.23020896315574646
1765009590775525400,5.410525390625,0.1454916000366211,-0.2058621644973755,0.2597227096557617
1765009590785525500,5.420525390625,0.07523441314697266,-0.19334286451339722,0.27668148279190063
1765009590795525400,5.430525390625,0.0501251220703125,-0.16452670097351074,0.27915510535240173
1765009590805525500,5.440525390625,0.06588363647460938,-0.14017903804779053,0.2589789032936096
1765009590815525400,5.450525390625,0.13338088989257812,-0.11676979064941406,0.20636016130447388
1765009590825525500,5.460525390625,0.23720836639404297,-0.10143840312957764,0.12959544360637665
1765009590835525400,5.470525390625,0.34691333770751953,-0.11765122413635254,0.08368513733148575
1765009590845525500,5.480525390625,0.4890737533569336,-0.1476348638534546,0.04220040515065193
1765009590855525400,5.490525390625,0.6203775405883789,-0.18366706371307373,0.00697045773267746
1765009590865525500,5.500525390625,0.6771450042724609,-0.24905943870544434,-0.008305046707391739
1765009590875525400,5.510525390625,0.6735343933105469,-0.33615922927856445,-0.018430527299642563
1765009590885525500,5.520525390625,0.6034040451049805,-0.41285383701324463,-0.06329356878995895
1765009590895525400,5.530525390625,0.4455289840698242,-0.47387611865997314,-0.13120003044605255
1765009590905525500,5.540525390625,0.27768611907958984,-0.48441100120544434,-0.18067750334739685
1765009590915525400,5.550525390625,0.09471321105957031,-0.4418959617614746,-0.19008386135101318
1765009590925525500,5.560525390625,0.0020074844360351562,-0.36354804039001465,-0.15207701921463013
1765009590935525400,5.570525390625,0.0004215240478515625,-0.2406156063079834,-0.10475142300128937
1765009590945525500,5.580525390625,-0.10002326965332031,-0.15657567977905273,-0.09928902983665466
1765009590955525400,5.590525390625,-0.24665546417236328,-0.12729144096374512,-0.13760319352149963
1765009590965525500,5.600525390625,-0.37296581268310547,-0.1213984489440918,-0.18150287866592407
1765009590975525400,5.610525390625,-0.47646427154541016,-0.12595701217651367,-0.20066560804843903
1765009590985525500,5.620525390625,-0.5515804290771484,-0.10675930976867676,-0.18512628972530365
1765009590995525400,5.630525390625,-0.6010990142822266,-0.08409690856933594,-0.12489103525876999
1765009591005525500,5.640525390625,-0.5884876251220703,-0.05453038215637207,-0.042707476764917374
1765009591015525400,5.650525390625,-0.5940828323364258,-0.03377103805541992,0.008387111127376556
1765009591025525500,5.660525390625,-0.6104164123535156,-0.041327714920043945,0.04096769541501999
1765009591035525400,5.670525390625,-0.5891580581665039,-0.06058812141418457,0.06521829962730408
1765009591045525500,5.680525390625,-0.5476169586181641,-0.07032060623168945,0.10460947453975677
1765009591055525400,5.690525390625,-0.4752836227416992,-0.05596446990966797,0.14836299419403076
1765009591065525500,5.700525390625,-0.3835916519165039,-0.02931952476501465,0.18381303548812866
1765009591075525400,5.710525390625,-0.2738943099975586,-0.008670806884765625,0.20246969163417816
1765009591085525500,5.720525390625,-0.06383228302001953,0.0072956085205078125,0.2053510695695877
1765009591095525400,5.730525390625,0.13776683807373047,0.0056915283203125,0.1906622350215912
1765009591105525500,5.740525390625,0.23714828491210938,-0.022772789001464844,0.16052928566932678
1765009591115525400,5.750525390625,0.2682218551635742,-0.07972335815429688,0.10475794970989227
1765009591125525500,5.760525390625,0.24389362335205078,-0.1515953540802002,0.055560044944286346
1765009591135525400,5.770525390625,0.22896575927734375,-0.20459270477294922,0.04071716219186783
1765009591145525500,5.780525390625,0.1681528091430664,-0.22782540321350098,0.027605338022112846
1765009591155525400,5.790525390625,0.04016685485839844,-0.2341165542602539,0.01095032412558794
1765009591165525500,5.800525390625,-0.05649280548095703,-0.25043678283691406,-0.008646664209663868
1765009591175525400,5.810525390625,-0.10327434539794922,-0.2838857173919678,-0.04221899062395096
1765009591185525500,5.820525390625,-0.1610555648803711,-0.2718346118927002,-0.0336216501891613
1765009591195525400,5.830525390625,-0.20440387725830078,-0.2199244499206543,-0.007818644866347313
1765009591205525500,5.840525390625,-0.24439334869384766,-0.15937566757202148,0.012914289720356464
1765009591215525400,5.850525390625,-0.20969772338867188,-0.08488202095031738,0.024273667484521866
1765009591225525500,5.860525390625,-0.09709835052490234,0.010930299758911133,0.01619691029191017
1765009591235525400,5.870525390625,-0.09242057800292969,0.08191180229187012,-0.013651441782712936
1765009591245525500,5.880525390625,-0.14602088928222656,0.10129690170288086,-0.04809467867016792
1765009591255525400,5.890525390625,-0.19309520721435547,0.07490682601928711,-0.07913815975189209
1765009591265525500,5.900525390625,-0.35431671142578125,0.0386199951171875,-0.05529326945543289
1765009591275525400,5.910525390625,-0.44086170196533203,0.03281259536743164,-0.018946409225463867
1765009591285525500,5.920525390625,-0.3788156509399414,0.04085493087768555,0.0009757073130458593
1765009591295525400,5.930525390625,-0.43943023681640625,0.04078102111816406,0.05153248459100723
1765009591305525500,5.940525390625,-0.4731616973876953,0.030867576599121094,0.09666292369365692
1765009591315525400,5.950525390625,-0.26829051971435547,0.03891277313232422,0.15084922313690186
1765009591325525500,5.960525390625,-0.10144519805908203,0.1087040901184082,0.14425119757652283
1765009591335525400,5.970525390625,-0.18555068969726562,0.1272578239440918,0.09589897841215134
1765009591345525500,5.980525390625,-0.2840843200683594,0.09508514404296875,0.0077091241255402565
1765009591355525400,5.990525390625,-0.2523021697998047,0.07242488861083984,-0.06672453135251999
1765009591365525500,6.000525390625,-0.09229183197021484,0.10107040405273438,-0.10796637833118439
1765009591375525400,6.010525390625,-0.14543914794921875,0.1260986328125,-0.07425466179847717
1765009591385525500,6.020525390625,-0.24290752410888672,0.11897039413452148,-0.02857062593102455
1765009591395525400,6.030525390625,-0.18750381469726562,0.1390228271484375,-0.057506412267684937
1765009591405525500,6.040525390625,-0.2960987091064453,0.1262378692626953,-0.11604832857847214
1765009591415525400,6.050525390625,-0.4026212692260742,0.11189985275268555,-0.13510367274284363
1765009591425525500,6.060525390625,-0.42259788513183594,0.12666654586791992,-0.09113506972789764
1765009591435525400,6.070525390625,-0.42899417877197266,0.12410879135131836,-0.022537576034665108
1765009591445525500,6.080525390625,-0.4268617630004883,0.09439754486083984,0.05224347859621048
1765009591455525400,6.090525390625,-0.4448690414428711,0.052928924560546875,0.12468033283948898
1765009591465525500,6.100525390625,-0.4877462387084961,0.020553112030029297,0.16938358545303345
1765009591475525400,6.110525390625,-0.48149681091308594,0.00935506820678711,0.2082960307598114
1765009591485525500,6.120525390625,-0.3458871841430664,0.0018262863159179688,0.24027585983276367
1765009591495525400,6.130525390625,-0.2665987014770508,0.035921573638916016,0.2424677312374115
1765009591505525500,6.140525390625,-0.3187704086303711,0.0640869140625,0.15466956794261932
1765009591515525400,6.150525390625,-0.3217601776123047,0.044817447662353516,0.06151583790779114
1765009591525525500,6.160525390625,-0.3659334182739258,0.04201030731201172,-0.014200598932802677
1765009591535525400,6.170525390625,-0.4486360549926758,0.0773763656616211,-0.015854954719543457
1765009591545525500,6.180525390625,-0.575251579284668,0.09957647323608398,-0.01847868598997593
1765009591555525400,6.190525390625,-0.7093534469604492,0.12644624710083008,-0.027446532621979713
1765009591565525500,6.200525390625,-0.7992486953735352,0.1574850082397461,-0.03911907225847244
1765009591575525400,6.210525390625,-0.8861861228942871,0.16141510009765625,-0.060482777655124664
1765009591585525500,6.220525390625,-0.869659423828125,0.1456911563873291,-0.033166419714689255
1765009591595525400,6.230525390625,-0.8565273284912109,0.17286372184753418,-0.035093143582344055
1765009591605525500,6.240525390625,-0.8563957214355469,0.21440768241882324,-0.1066092774271965
1765009591615525400,6.250525390625,-0.7331399917602539,0.2525594234466553,-0.11716385185718536
1765009591625525500,6.260525390625,-0.49590301513671875,0.2559666633605957,-0.09662008285522461
1765009591635525400,6.270525390625,-0.27594470977783203,0.29038572311401367,-0.0993514358997345
1765009591645525500,6.280525390625,-0.1097860336303711,0.3105149269104004,-0.10576681792736053
1765009591655525400,6.290525390625,0.06676101684570312,0.30626463890075684,-0.17194436490535736
1765009591665525500,6.300525390625,0.30324554443359375,0.2808384895324707,-0.14536035060882568
1765009591675525400,6.310525390625,0.41932010650634766,0.3008730411529541,-0.08133547753095627
1765009591685525500,6.320525390625,0.5218706130981445,0.21963715553283691,-0.03394783288240433
1765009591695525400,6.330525390625,0.6594753265380859,0.1031489372253418,-0.0188354030251503
1765009591705525500,6.340525390625,0.7145366668701172,0.011124134063720703,-0.04225848615169525
1765009591715525400,6.350525390625,0.750518798828125,-0.036817312240600586,-0.03758415952324867
1765009591725525500,6.360525390625,0.8494014739990234,-0.11043071746826172,0.042170003056526184
1765009591735525400,6.370525390625,0.883366584777832,-0.16454064846038818,0.10546816140413284
1765009591745525500,6.380525390625,0.7810325622558594,-0.21623742580413818,0.14426319301128387
1765009591755525400,6.390525390625,0.6621990203857422,-0.2858157157897949,0.22458699345588684
1765009591765525500,6.400525390625,0.47033119201660156,-0.30634307861328125,0.24847891926765442
1765009591775525400,6.410525390625,0.25979137420654297,-0.3143887519836426,0.209218367934227
1765009591785525500,6.420525390625,0.01206207275390625,-0.24638593196868896,0.17264965176582336
1765009591795525400,6.430525390625,-0.1205453872680664,-0.1733177900314331,0.154870867729187
1765009591805525500,6.440525390625,-0.12621116638183594,-0.05289864540100098,0.16285386681556702
1765009591815525400,6.450525390625,-0.12822341918945312,0.04652678966522217,0.15928508341312408
1765009591825525500,6.460525390625,-0.13321876525878906,0.12985122203826904,0.16397446393966675
1765009591835525400,6.470525390625,-0.03926563262939453,0.15869414806365967,0.12964724004268646
1765009591845525500,6.480525390625,0.026619911193847656,0.15763425827026367,0.0838148295879364
1765009591855525400,6.490525390625,0.04593944549560547,0.14087462425231934,0.015941355377435684
1765009591865525500,6.500525390625,0.02099132537841797,0.12550902366638184,0.011554497294127941
1765009591875525400,6.510525390625,0.04980278015136719,0.07839298248291016,0.0373147688806057
1765009591885525500,6.520525390625,0.023659706115722656,0.019285917282104492,0.09529035538434982
1765009591895525400,6.530525390625,0.0028467178344726562,-0.019884705543518066,0.11350443959236145
1765009591905525500,6.540525390625,0.02365589141845703,-0.05964994430541992,0.0956890732049942
1765009591915525400,6.550525390625,0.02954864501953125,-0.07866489887237549,0.046618200838565826
1765009591925525500,6.560525390625,0.026575088500976562,-0.07573807239532471,0.022159505635499954
1765009591935525400,6.570525390625,0.06905174255371094,-0.029975056648254395,0.05530776455998421
1765009591945525500,6.580525390625,0.1239309310913086,-0.005170106887817383,0.10069607198238373
1765009591955525400,6.590525390625,0.09705162048339844,0.01618802547454834,0.11623454838991165
1765009591965525500,6.600525390625,0.05960845947265625,0.0010759830474853516,0.12794256210327148
1765009591975525400,6.610525390625,0.07227611541748047,-0.003237128257751465,0.0957660973072052
1765009591985525500,6.620525390625,0.06852340698242188,-0.02424168586730957,0.058969710022211075
1765009591995525400,6.630525390625,0.061817169189453125,-0.03170454502105713,0.0702211931347847
1765009592005525500,6.640525390625,0.05574989318847656,-0.03934741020202637,0.08317339420318604
1765009592015525400,6.650525390625,0.04756927490234375,-0.03235363960266113,0.03586670756340027
1765009592025525500,6.660525390625,0.06547737121582031,-0.004967212677001953,-0.01620536297559738
1765009592035525400,6.670525390625,0.041831016540527344,0.0156327486038208,-0.090361088514328
1765009592045525500,6.680525390625,0.02295398712158203,0.028051018714904785,-0.16285376250743866
1765009592055525400,6.690525390625,0.025045394897460938,0.040875792503356934,-0.16446742415428162
1765009592065525500,6.700525390625,-0.03402996063232422,0.04536771774291992,-0.10759608447551727
1765009592075525400,6.710525390625,-0.06075859069824219,0.05763983726501465,-0.03437049686908722
1765009592085525500,6.720525390625,-0.10135269165039062,0.08075857162475586,0.035895444452762604
1765009592095525400,6.730525390625,-0.165252685546875,0.08250081539154053,0.10733707994222641
1765009592105525500,6.740525390625,-0.14682769775390625,0.022536754608154297,0.14205200970172882
1765009592115525400,6.750525390625,-0.12408828735351562,-0.04041159152984619,0.1393158882856369
1765009592125525500,6.760525390625,-0.08614730834960938,-0.05391669273376465,0.11584948003292084
1765009592135525400,6.770525390625,-0.01614093780517578,-0.08411478996276855,0.10797703266143799
1765009592145525500,6.780525390625,0.07656383514404297,-0.08765590190887451,0.08521280437707901
1765009592155525400,6.790525390625,0.10623836517333984,-0.06676673889160156,0.07414048910140991
1765009592165525500,6.800525390625,0.02342510223388672,-0.0735328197479248,0.01489269733428955
1765009592175525400,6.810525390625,-0.0014495849609375,-0.05675041675567627,-0.07297089695930481
1765009592185525500,6.820525390625,-0.10780906677246094,-0.08911681175231934,-0.2801949381828308
1765009592195525400,6.830525390625,-0.32120418548583984,-0.23760592937469482,-0.41598793864250183
1765009592205525500,6.840525390625,-0.21515369415283203,-0.3317605257034302,-0.316414475440979
1765009592215525400,6.850525390625,-0.049648284912109375,-0.19818150997161865,0.02852196991443634
1765009592225525500,6.860525390625,0.13248729705810547,0.03501319885253906,0.40280991792678833
1765009592235525400,6.870525390625,0.21835041046142578,0.26132094860076904,0.6416054964065552
1765009592245525500,6.880525390625,0.12021636962890625,0.37232470512390137,0.6124477386474609
1765009592255525400,6.890525390625,-0.07496166229248047,0.36804914474487305,0.4472917914390564
1765009592265525500,6.900525390625,-0.26868438720703125,0.33057236671447754,0.20808199048042297
1765009592275525400,6.910525390625,-0.4081611633300781,0.2291959524154663,0.02043101191520691
1765009592285525500,6.920525390625,-0.40445804595947266,0.10639536380767822,-0.08294299244880676
1765009592295525400,6.930525390625,-0.3628063201904297,-0.06807923316955566,-0.11701881885528564
1765009592305525500,6.940525390625,-0.4233379364013672,-0.3285248279571533,-0.08968096971511841
1765009592315525400,6.950525390625,-0.5687084197998047,-0.5359762907028198,-0.026214957237243652
1765009592325525500,6.960525390625,-0.5530433654785156,-0.6422410011291504,0.12437498569488525
1765009592335525400,6.970525390625,-0.4159841537475586,-0.6362870931625366,0.3984038233757019
1765009592345525500,6.980525390625,-0.17858505249023438,-0.4962362051010132,0.6713403463363647
1765009592355525400,6.990525390625,0.14627456665039062,-0.2638050317764282,0.8431665897369385
1765009592365525500,7.000525390625,0.37251758575439453,-0.03961443901062012,0.8797541260719299
1765009592375525400,7.010525390625,0.5197210311889648,0.13317561149597168,0.7600182294845581
1765009592385525500,7.020525390625,0.5691537857055664,0.17982149124145508,0.5872139930725098
1765009592395525400,7.030525390625,0.5425214767456055,0.23215460777282715,0.2992527484893799
1765009592405525500,7.040525390625,0.41858577728271484,0.3666658401489258,-0.05675637722015381
1765009592415525400,7.050525390625,0.33843421936035156,0.5632592439651489,-0.6114617586135864
1765009592425525500,7.060525390625,0.4696636199951172,0.7881364822387695,-1.3827767372131348
1765009592435525400,7.070525390625,0.3964385986328125,1.0014678239822388,-1.8506853580474854
1765009592445525500,7.080525390625,0.31244468688964844,0.9956529140472412,-2.068023204803467
1765009592455525400,7.090525390625,0.5368003845214844,0.6925706267356873,-1.9741417169570923
1765009592465525500,7.100525390625,0.7978954315185547,0.40170717239379883,-1.6206976175308228
1765009592475525400,7.110525390625,0.8245420455932617,0.35507577657699585,-1.115077257156372
1765009592485525500,7.120525390625,0.6323719024658203,0.3416299819946289,-0.6625207662582397
1765009592495525400,7.130525390625,0.558741569519043,0.20715922117233276,-0.41374027729034424
1765009592505525500,7.140525390625,0.5427742004394531,0.028785765171051025,-0.2953310012817383
1765009592515525400,7.150525390625,0.6026287078857422,-0.14682352542877197,-0.2149749994277954
1765009592525525500,7.160525390625,0.6264858245849609,-0.26524537801742554,-0.05073106288909912
1765009592535525400,7.170525390625,0.4671649932861328,-0.27482253313064575,0.1679595708847046
1765009592545525500,7.180525390625,0.01816082000732422,-0.3055632710456848,0.420749306678772
1765009592555525400,7.190525390625,-0.3090791702270508,-0.4036981463432312,0.4710061550140381
1765009592565525500,7.200525390625,-0.18309593200683594,-0.42376774549484253,0.2536435127258301
1765009592575525400,7.210525390625,-0.2933378219604492,-0.3874635696411133,0.13897573947906494
1765009592585525500,7.220525390625,-0.3004598617553711,-0.2765815854072571,0.10599839687347412
1765009592595525400,7.230525390625,-0.16803836822509766,-0.14149558544158936,0.07839500904083252
1765009592605525500,7.240525390625,0.061183929443359375,-0.24695557355880737,0.025031089782714844
1765009592615525400,7.250525390625,0.4108161926269531,-0.4162853956222534,-0.0298459529876709
1765009592625525500,7.260525390625,0.6700267791748047,-0.4453929364681244,0.048963725566864014
1765009592635525400,7.270525390625,0.7228412628173828,-0.3663322627544403,0.09463810920715332
1765009592645525500,7.280525390625,0.697296142578125,-0.25898635387420654,0.04642742872238159
1765009592655525400,7.290525390625,0.6032133102416992,-0.1401665210723877,-0.05169105529785156
1765009592665525500,7.300525390625,0.3996572494506836,-0.05742228031158447,-0.14321368932724
1765009592675525400,7.310525390625,0.16105079650878906,0.06330105662345886,-0.13277924060821533
1765009592685525500,7.320525390625,-0.04779624938964844,0.15801700949668884,-0.09015047550201416
1765009592695525400,7.330525390625,-0.3255605697631836,0.24955999851226807,0.01673257350921631
1765009592705525500,7.340525390625,-0.6567478179931641,0.30783891677856445,0.10569387674331665
1765009592715525400,7.350525390625,-1.0020465850830078,0.3750447630882263,0.16444694995880127
1765009592725525500,7.360525390625,-1.254831314086914,0.4354720711708069,0.14430326223373413
1765009592735525400,7.370525390625,-1.4252967834472656,0.4701719284057617,0.07764548063278198
1765009592745525500,7.380525390625,-1.4546947479248047,0.54153972864151,0.10057812929153442
1765009592755525400,7.390525390625,-1.4113388061523438,0.6531508564949036,0.18068057298660278
1765009592765525500,7.400525390625,-1.3643369674682617,0.6467605829238892,0.2716017961502075
1765009592775525400,7.410525390625,-1.1681623458862305,0.48848241567611694,0.26924097537994385
1765009592785525500,7.420525390625,-0.8412818908691406,0.2647380828857422,0.17714262008666992
1765009592795525400,7.430525390625,-0.4160947799682617,0.07418406009674072,0.07144469022750854
1765009592805525500,7.440525390625,-0.08654308319091797,-0.03526347875595093,-0.047386765480041504
1765009592815525400,7.450525390625,0.2614564895629883,-0.22454923391342163,-0.12941545248031616
1765009592825525500,7.460525390625,0.5397853851318359,-0.418281614780426,-0.28083181381225586
1765009592835525400,7.470525390625,0.7598667144775391,-0.4859730899333954,-0.3661201596260071
1765009592845525500,7.480525390625,0.9220476150512695,-0.42405998706817627,-0.20445847511291504
1765009592855525400,7.490525390625,1.011906623840332,-0.3494546413421631,-0.03713202476501465
1765009592865525500,7.500525390625,0.9920520782470703,-0.3981505036354065,0.07793569564819336
1765009592875525400,7.510525390625,0.9446430206298828,-0.4060930013656616,0.13311117887496948
1765009592885525500,7.520525390625,0.7033824920654297,-0.291521817445755,0.17229104042053223
1765009592895525400,7.530525390625,0.3691692352294922,-0.09449261426925659,0.12654906511306763
1765009592905525500,7.540525390625,0.03956127166748047,0.10075175762176514,0.023183465003967285
1765009592915525400,7.550525390625,-0.24270248413085938,0.2826293706893921,-0.16152387857437134
1765009592925525500,7.560525390625,-0.4822406768798828,0.4005405306816101,-0.2819559574127197
1765009592935525400,7.570525390625,-0.586944580078125,0.41973161697387695,-0.3072824478149414
1765009592945525500,7.580525390625,-0.66851806640625,0.3079206347465515,-0.3190775513648987
1765009592955525400,7.590525390625,-0.4934225082397461,0.0727267861366272,-0.2841649055480957
1765009592965525500,7.600525390625,-0.1248159408569336,-0.13895243406295776,-0.16575109958648682
1765009592975525400,7.610525390625,0.22702884674072266,-0.21985900402069092,0.00428241491317749
1765009592985525500,7.620525390625,0.3828296661376953,-0.22824373841285706,0.1905408501625061
1765009592995525400,7.630525390625,0.5348644256591797,-0.23966622352600098,0.33069324493408203
1765009593005525500,7.640525390625,0.6959133148193359,-0.21435797214508057,0.4367101788520813
1765009593015525400,7.650525390625,0.6036577224731445,-0.0708056092262268,0.4638400673866272
1765009593025525500,7.660525390625,0.34108638763427734,0.10600215196609497,0.4226965606212616
1765009593035525400,7.670525390625,0.08369827270507812,0.257837176322937,0.3196607828140259
1765009593045525500,7.680525390625,-0.25052928924560547,0.39058709144592285,0.0920495092868805
1765009593055525400,7.690525390625,-0.7462320327758789,0.4761505126953125,-0.20626741647720337
1765009593065525500,7.700525390625,-1.1341466903686523,0.3965449929237366,-0.44838303327560425
1765009593075525400,7.710525390625,-1.1795129776000977,0.24318468570709229,-0.5261750221252441
1765009593085525500,7.720525390625,-1.0093212127685547,0.2589750289916992,-0.39934757351875305
1765009593095525400,7.730525390625,-0.8142757415771484,0.2585744857788086,-0.24572843313217163
1765009593105525500,7.740525390625,-0.49782657623291016,0.01658421754837036,-0.15356457233428955
1765009593115525400,7.750525390625,-0.03270530700683594,-0.3123258948326111,-0.1368396282196045
1765009593125525500,7.760525390625,0.5013952255249023,-0.5240784883499146,-0.1026260256767273
1765009593135525400,7.770525390625,0.8981904983520508,-0.5407118797302246,-0.05776137113571167
1765009593145525500,7.780525390625,1.1282033920288086,-0.40713775157928467,0.06626099348068237
1765009593155525400,7.790525390625,1.129725456237793,-0.17077895998954773,0.26770853996276855
1765009593165525500,7.800525390625,0.8248434066772461,0.13189813494682312,0.4657725691795349
1765009593175525400,7.810525390625,0.2987375259399414,0.45506274700164795,0.5391462445259094
1765009593185525500,7.820525390625,-0.36327648162841797,0.7561739683151245,0.3218786418437958
1765009593195525400,7.830525390625,-0.9937267303466797,0.9342297315597534,-0.03697577118873596
1765009593205525500,7.840525390625,-1.6431427001953125,0.9392721056938171,-0.3921690583229065
1765009593215525400,7.850525390625,-1.995713233947754,0.623763918876648,-0.7354495525360107
1765009593225525500,7.860525390625,-1.5814952850341797,0.14286047220230103,-1.050037145614624
1765009593235525400,7.870525390625,-0.6830263137817383,-0.2663208842277527,-1.1113255023956299
1765009593245525500,7.880525390625,0.285247802734375,-0.5278049111366272,-0.8458490371704102
1765009593255525400,7.890525390625,0.8959827423095703,-0.6570798754692078,-0.25877097249031067
1765009593265525500,7.900525390625,1.3840770721435547,-0.7706517577171326,0.3059622645378113
1765009593275525400,7.910525390625,1.8811674118041992,-0.7875533699989319,0.7269232273101807
1765009593285525500,7.920525390625,2.0343713760375977,-0.6003434062004089,1.0808384418487549
1765009593295525400,7.930525390625,1.5601377487182617,-0.24180907011032104,1.1849260330200195
1765009593305525500,7.940525390625,0.6110601425170898,0.19938862323760986,1.0731279850006104
1765009593315525400,7.950525390625,-0.3473024368286133,0.44838351011276245,0.7116120457649231
1765009593325525500,7.960525390625,-0.8299884796142578,0.529276967048645,0.18398204445838928
1765009593335525400,7.970525390625,-1.205754280090332,0.5533713698387146,-0.43270349502563477
1765009593345525500,7.980525390625,-1.7100458145141602,0.5521597862243652,-0.885412335395813
1765009593355525400,7.990525390625,-1.9220142364501953,0.47648221254348755,-1.1161420345306396
1765009593365525500,8.000525390625,-1.490574836730957,0.3077165484428406,-1.3049938678741455
1765009593375525400,8.010525390625,-0.6259841918945312,-0.021977245807647705,-1.3699676990509033
1765009593385525500,8.020525390625,0.07291507720947266,-0.32878273725509644,-1.0396045446395874
1765009593395525400,8.030525390625,0.6171855926513672,-0.5732600688934326,-0.5563157796859741
1765009593405525500,8.040525390625,1.366257667541504,-0.7005151510238647,-0.09057348966598511
1765009593415525400,8.050525390625,1.9763813018798828,-0.6589211225509644,0.37013471126556396
1765009593425525500,8.060525390625,2.1896886825561523,-0.617659866809845,0.6844706535339355
1765009593435525400,8.070525390625,1.9899368286132812,-0.5436659455299377,0.8446471095085144
1765009593445525500,8.080525390625,1.5108871459960938,-0.4434627592563629,0.8815252780914307
1765009593455525400,8.090525390625,0.9903936386108398,-0.33992892503738403,0.7207037210464478
1765009593465525500,8.100525390625,0.6278867721557617,-0.17968115210533142,0.5225030779838562
1765009593475525400,8.110525390625,0.15022563934326172,0.1438552737236023,0.24583280086517334
1765009593485525500,8.120525390625,-0.5007133483886719,0.5250300168991089,-0.05306607484817505
1765009593495525400,8.130525390625,-1.1067829132080078,0.82525235414505,-0.21901819109916687
1765009593505525500,8.140525390625,-1.5200481414794922,0.969024121761322,-0.35446229577064514
1765009593515525400,8.150525390625,-1.7432594299316406,0.8867638111114502,-0.4510655701160431
1765009593525525500,8.160525390625,-1.7508621215820312,0.662794291973114,-0.5219770669937134
1765009593535525400,8.170525390625,-1.5394620895385742,0.37332212924957275,-0.5259521007537842
1765009593545525500,8.180525390625,-1.1823530197143555,0.050195932388305664,-0.4558124840259552
1765009593555525400,8.190525390625,-0.6744527816772461,-0.2301730513572693,-0.29757651686668396
1765009593565525500,8.200525390625,-0.08685684204101562,-0.432587206363678,-0.08164477348327637
1765009593575525400,8.210525390625,0.4492950439453125,-0.5543068647384644,0.1357438564300537
1765009593585525500,8.220525390625,0.8154687881469727,-0.6000814437866211,0.294241726398468
1765009593595525400,8.230525390625,1.0394468307495117,-0.6651116609573364,0.4081949293613434
1765009593605525500,8.240525390625,1.1201629638671875,-0.679725706577301,0.4975942373275757
1765009593615525400,8.250525390625,1.0258798599243164,-0.6273910403251648,0.5218717455863953
1765009593625525500,8.260525390625,0.839869499206543,-0.502814531326294,0.42173075675964355
1765009593635525400,8.270525390625,0.5861063003540039,-0.2998080253601074,0.20886006951332092
1765009593645525500,8.280525390625,0.2507171630859375,-0.08006834983825684,0.008597224950790405
1765009593655525400,8.290525390625,0.029158592224121094,0.14258849620819092,-0.12233966588973999
1765009593665525500,8.300525390625,-0.2150440216064453,0.3537892699241638,-0.10460972785949707
1765009593675525400,8.310525390625,-0.49817562103271484,0.5409828424453735,-0.005693703889846802
1765009593685525500,8.320525390625,-0.7787456512451172,0.6382203102111816,0.05966383218765259
1765009593695525400,8.330525390625,-0.9197006225585938,0.5745445489883423,-0.007561326026916504
1765009593705525500,8.340525390625,-0.8829307556152344,0.3708072304725647,-0.22048735618591309
1765009593715525400,8.350525390625,-0.7881441116333008,0.22812503576278687,-0.41957905888557434
1765009593725525500,8.360525390625,-0.7871227264404297,0.13385963439941406,-0.4086141586303711
1765009593735525400,8.370525390625,-0.532318115234375,0.10834944248199463,-0.3201231360435486
1765009593745525500,8.380525390625,-0.17212581634521484,0.14308404922485352,-0.16107890009880066
1765009593755525400,8.390525390625,0.21132373809814453,0.16210323572158813,0.0014590322971343994
1765009593765525500,8.400525390625,0.4963569641113281,0.09071767330169678,0.11195419728755951
1765009593775525400,8.410525390625,0.6783847808837891,-0.025332152843475342,0.21961259841918945
1765009593785525500,8.420525390625,0.6832780838012695,0.016509532928466797,0.310721755027771
1765009593795525400,8.430525390625,0.39951515197753906,0.18530958890914917,0.3511492609977722
1765009593805525500,8.440525390625,0.008561134338378906,0.31243687868118286,0.15887373685836792
1765009593815525400,8.450525390625,-0.5113201141357422,0.3144739270210266,-0.2246004343032837
1765009593825525500,8.460525390625,-0.9685783386230469,-0.07716140151023865,-0.7887087464332581
1765009593835525400,8.470525390625,-0.9910421371459961,-0.5402611494064331,-1.1512799263000488
1765009593845525500,8.480525390625,-0.21571063995361328,-0.6697757244110107,-0.8003851771354675
1765009593855525400,8.490525390625,1.2809982299804688,-0.2745497524738312,0.2004736065864563
1765009593865525500,8.500525390625,2.2218122482299805,0.3466733694076538,1.386536955833435
1765009593875525400,8.510525390625,1.6429061889648438,0.9881719350814819,2.231898307800293
1765009593885525500,8.520525390625,0.16094970703125,1.5732536315917969,2.2953741550445557
1765009593895525400,8.530525390625,-1.7661314010620117,1.8363019227981567,1.044404149055481
1765009593905525500,8.540525390625,-3.6656408309936523,1.3718897104263306,-0.5307937264442444
1765009593915525400,8.550525390625,-4.934665203094482,0.6826428174972534,-2.2059688568115234
1765009593925525500,8.560525390625,-4.30659818649292,-0.5199713706970215,-3.7264251708984375
1765009593935525400,8.570525390625,-0.1211557388305664,-1.425736427307129,-4.432127475738525
1765009593945525500,8.580525390625,2.9133996963500977,-1.3198463916778564,-3.098206043243408
1765009593955525400,8.590525390625,3.4376211166381836,-0.8149377703666687,-0.7907341718673706
1765009593965525500,8.600525390625,3.470602035522461,-0.952073335647583,1.1057238578796387
1765009593975525400,8.610525390625,3.37490177154541,-1.6797199249267578,2.317225933074951
1765009593985525500,8.620525390625,3.0469484329223633,-1.9515807628631592,2.5782060623168945
1765009593995525400,8.630525390625,2.178830146789551,-1.1466890573501587,2.4646408557891846
1765009594005525500,8.640525390625,0.8256711959838867,-0.42084336280822754,2.2671477794647217
1765009594015525400,8.650525390625,-0.14042282104492188,0.09109403192996979,1.3195888996124268
1765009594025525500,8.660525390625,-0.5912084579467773,0.5081670880317688,0.1012900173664093
1765009594035525400,8.670525390625,-0.5058507919311523,0.7549877166748047,-0.42420536279678345
1765009594045525500,8.680525390625,0.08016681671142578,1.2066256999969482,-0.7021647095680237
1765009594055525400,8.690525390625,-0.03552722930908203,1.6471902132034302,-0.7847294211387634
1765009594065525500,8.700525390625,-1.0481491088867188,1.5585235357284546,-0.951657772064209
1765009594075525400,8.710525390625,-1.6028814315795898,0.8314194679260254,-1.1687207221984863
1765009594085525500,8.720525390625,-1.3400850296020508,0.08378398418426514,-1.3572851419448853
1765009594095525400,8.730525390625,-0.7276105880737305,-0.5249994397163391,-1.464289903640747
1765009594105525500,8.740525390625,0.1138458251953125,-1.123319387435913,-0.987311601638794
1765009594115525400,8.750525390625,0.9712047576904297,-1.3278307914733887,-0.08781230449676514
1765009594125525500,8.760525390625,1.3387336730957031,-1.11899995803833,0.9134508371353149
1765009594135525400,8.770525390625,1.19659423828125,-0.851118803024292,1.7010701894760132
1765009594145525500,8.780525390625,0.6834983825683594,-0.6582045555114746,2.0465056896209717
1765009594155525400,8.790525390625,-0.013724327087402344,-0.38593730330467224,1.775963544845581
1765009594165525500,8.800525390625,-0.7383089065551758,0.05225950479507446,1.061739206314087
1765009594175525400,8.810525390625,-1.267852783203125,0.48582690954208374,0.20975792407989502
1765009594185525500,8.820525390625,-1.68157958984375,0.7311745285987854,-0.7683320045471191
1765009594195525400,8.830525390625,-1.5792169570922852,0.7790586352348328,-1.8203798532485962
1765009594205525500,8.840525390625,-0.5983076095581055,0.39057695865631104,-2.4429128170013428
1765009594215525400,8.850525390625,0.7573366165161133,-0.2867269515991211,-2.1656062602996826
1765009594225525500,8.860525390625,1.5661211013793945,-0.6906408667564392,-1.211250901222229
1765009594235525400,8.870525390625,1.568629264831543,-0.5427442789077759,0.10565754771232605
1765009594245525500,8.880525390625,1.1347789764404297,-0.11724042892456055,1.3767971992492676
1765009594255525400,8.890525390625,0.3532285690307617,0.29991060495376587,2.0550007820129395
1765009594265525500,8.900525390625,-0.8963489532470703,0.9048627018928528,2.1453657150268555
1765009594275525400,8.910525390625,-2.274259090423584,1.4378788471221924,1.8856236934661865
1765009594285525500,8.920525390625,-3.3198933601379395,1.3172872066497803,1.0391820669174194
1765009594295525400,8.930525390625,-3.6284189224243164,0.2561725378036499,-0.5302234888076782
1765009594305525500,8.940525390625,-2.2876510620117188,-0.7155070900917053,-2.0480878353118896
1765009594315525400,8.950525390625,0.015203475952148438,-1.1296818256378174,-2.7823643684387207
1765009594325525500,8.960525390625,1.8968048095703125,-1.1115961074829102,-2.3013103008270264
1765009594335525400,8.970525390625,2.8889284133911133,-0.8547338247299194,-1.0283881425857544
1765009594345525500,8.980525390625,3.703362464904785,-0.5651082396507263,0.5493762493133545
1765009594355525400,8.990525390625,3.8405675888061523,-0.237808957695961,1.7962093353271484
1765009594365525500,9.000525390625,3.050811767578125,-0.10406188666820526,2.1186585426330566
1765009594375525400,9.010525390625,1.664031982421875,0.613090991973877,1.773672342300415
1765009594385525500,9.020525390625,-0.750452995300293,0.9342476725578308,1.5303432941436768
1765009594395525400,9.030525390625,-3.045297622680664,1.0514963865280151,0.6338528394699097
1765009594405525500,9.040525390625,-4.595645904541016,1.0298699140548706,-0.6415953636169434
1765009594415525400,9.050525390625,-4.78314733505249,0.3090983033180237,-1.9783883094787598
1765009594425525500,9.060525390625,-0.3152484893798828,-0.8576371073722839,-3.285644769668579
1765009594435525400,9.070525390625,4.206770896911621,-1.1000996828079224,-2.6415417194366455
1765009594445525500,9.080525390625,3.8664121627807617,-0.27302035689353943,-0.49865517020225525
1765009594455525400,9.090525390625,1.8859357833862305,0.624393105506897,1.2045024633407593
1765009594465525500,9.100525390625,0.7890701293945312,0.4899575710296631,2.0298805236816406
1765009594475525400,9.110525390625,-0.4812002182006836,0.08030781149864197,2.291677713394165
1765009594485525500,9.120525390625,-2.5109453201293945,0.8738718032836914,1.9143459796905518
1765009594495525400,9.130525390625,-5.136412620544434,1.267942190170288,1.4722824096679688
1765009594505525500,9.140525390625,-6.547551155090332,0.9747236371040344,0.3311035633087158
1765009594515525400,9.150525390625,-5.109160423278809,-0.12262508273124695,-1.1427427530288696
1765009594525525500,9.160525390625,1.3797674179077148,-0.7915098071098328,-2.6610989570617676
1765009594535525400,9.170525390625,3.745305061340332,-0.36871853470802307,-2.471414089202881
1765009594545525500,9.180525390625,2.563858985900879,0.0026913434267044067,-1.530308485031128
1765009594555525400,9.190525390625,2.923128128051758,-0.4069153666496277,-0.8243395090103149
1765009594565525500,9.200525390625,3.891674041748047,-1.3000749349594116,0.32885801792144775
1765009594575525400,9.210525390625,3.69283390045166,-1.8135323524475098,1.4395320415496826
1765009594585525500,9.220525390625,2.447315216064453,-0.8640152812004089,1.8568456172943115
1765009594595525400,9.230525390625,0.3732891082763672,0.16355745494365692,1.9408936500549316
1765009594605525500,9.240525390625,-2.118056297302246,0.8044229745864868,1.2329620122909546
1765009594615525400,9.250525390625,-4.103984832763672,1.156783103942871,-0.08969365805387497
1765009594625525500,9.260525390625,-4.441679000854492,1.0837211608886719,-1.4712430238723755
1765009594635525400,9.270525390625,-0.5518627166748047,0.2864217162132263,-2.5660738945007324
1765009594645525500,9.280525390625,5.477456092834473,-1.2049634456634521,-2.669243335723877
1765009594655525400,9.290525390625,7.041227340698242,-2.2553796768188477,-1.4313008785247803
1765009594665525500,9.300525390625,4.980249404907227,-1.6495205163955688,0.42726612091064453
1765009594675525400,9.310525390625,3.118546485900879,-1.1494758129119873,1.9945197105407715
1765009594685525500,9.320525390625,1.201559066772461,-0.6313580274581909,2.852252721786499
1765009594695525400,9.330525390625,-1.3577604293823242,0.14104726910591125,2.893927812576294
1765009594705525500,9.340525390625,-4.465378761291504,0.5781017541885376,2.4186041355133057
1765009594715525400,9.350525390625,-6.749942779541016,0.798282265663147,1.4675853252410889
1765009594725525500,9.360525390625,-7.349745750427246,0.5132675766944885,0.31431734561920166
1765009594735525400,9.370525390625,-3.8364734649658203,0.028928279876708984,-1.4089601039886475
1765009594745525500,9.380525390625,1.2147397994995117,0.34932810068130493,-2.8373632431030273
1765009594755525400,9.390525390625,2.3622913360595703,0.7659881711006165,-2.807196617126465
1765009594765525500,9.400525390625,2.4257335662841797,0.6406663060188293,-2.2511677742004395
1765009594775525400,9.410525390625,3.8373336791992188,-0.1662694364786148,-1.283443570137024
1765009594785525500,9.420525390625,5.296204566955566,-0.9402080774307251,-0.04418095946311951
1765009594795525400,9.430525390625,5.180768966674805,-1.5417317152023315,0.80498206615448
1765009594805525500,9.440525390625,4.520474433898926,-0.4501870274543762,1.2175871133804321
1765009594815525400,9.450525390625,2.5630035400390625,0.17181742191314697,1.7256888151168823
1765009594825525500,9.460525390625,0.028993606567382812,0.32682108879089355,1.5303494930267334
1765009594835525400,9.470525390625,-2.128951072692871,0.40174856781959534,0.8121305108070374
1765009594845525500,9.480525390625,-3.671757221221924,0.4467241168022156,0.1592353731393814
1765009594855525400,9.490525390625,-4.074011325836182,0.40949273109436035,-0.2557409405708313
1765009594865525500,9.500525390625,-2.4179911613464355,0.1397247314453125,-0.37790775299072266
1765009594875525400,9.510525390625,1.1900529861450195,-0.1887362003326416,-0.7284486889839172
1765009594885525500,9.520525390625,1.2669782638549805,0.6632987856864929,-0.4373990595340729
1765009594895525400,9.530525390625,-1.5066795349121094,1.105655550956726,0.2795499861240387
1765009594905525500,9.540525390625,-2.805823802947998,0.5191912651062012,0.7260162830352783
1765009594915525400,9.550525390625,-2.5112485885620117,-0.6619490385055542,0.9289005994796753
1765009594925525500,9.560525390625,-2.2313613891601562,-1.5162575244903564,1.0435532331466675
1765009594935525400,9.570525390625,-1.4730920791625977,-1.8872703313827515,0.9018192291259766
1765009594945525500,9.580525390625,-0.34710121154785156,-1.6977086067199707,0.7062087655067444
1765009594955525400,9.590525390625,0.5058794021606445,-0.9709030985832214,0.620892345905304
1765009594965525500,9.600525390625,0.7620735168457031,-0.1577601432800293,0.3525184094905853
1765009594975525400,9.610525390625,0.7857570648193359,0.3952726721763611,-0.14503346383571625
1765009594985525500,9.620525390625,0.5890960693359375,0.7404874563217163,-0.5800715088844299
1765009594995525400,9.630525390625,0.19434070587158203,0.909487247467041,-0.8512732982635498
1765009595005525500,9.640525390625,-0.3301362991333008,0.9761666059494019,-0.9447200894355774
1765009595015525400,9.650525390625,-0.7694435119628906,0.8459663391113281,-0.8712461590766907
1765009595025525500,9.660525390625,-0.6561822891235352,0.44851231575012207,-0.7954763174057007
1765009595035525400,9.670525390625,-0.2474384307861328,0.2539824843406677,-0.6859399080276489
1765009595045525500,9.680525390625,-0.31713390350341797,0.29530543088912964,-0.43674492835998535
1765009595055525400,9.690525390625,-0.5182113647460938,0.20425951480865479,-0.344926655292511
1765009595065525500,9.700525390625,-0.24805355072021484,-0.1652560830116272,-0.40829500555992126
1765009595075525400,9.710525390625,0.3797426223754883,-0.47924676537513733,-0.3895165026187897
1765009595085525500,9.720525390625,0.8603029251098633,-0.4713590145111084,-0.18242070078849792
1765009595095525400,9.730525390625,1.2580270767211914,-0.37712207436561584,0.0863039493560791
1765009595105525500,9.740525390625,1.6693353652954102,-0.4176064133644104,0.15538641810417175
1765009595115525400,9.750525390625,1.9553852081298828,-0.501998782157898,0.13086846470832825
1765009595125525500,9.760525390625,2.0842676162719727,-0.5739027261734009,0.04108843207359314
1765009595135525400,9.770525390625,2.074418067932129,-0.5918221473693848,-0.08485278487205505
1765009595145525500,9.780525390625,2.075484275817871,-0.5356248021125793,-0.288779616355896
1765009595155525400,9.790525390625,2.049222946166992,-0.4210897386074066,-0.4731048345565796
1765009595165525500,9.800525390625,1.9824714660644531,-0.2623556852340698,-0.490888386964798
1765009595175525400,9.810525390625,1.7406578063964844,-0.08153554797172546,-0.3825545310974121
1765009595185525500,9.820525390625,1.2100229263305664,0.04202234745025635,-0.1802707314491272
1765009595195525400,9.830525390625,0.4354209899902344,0.15002846717834473,0.015158116817474365
1765009595205525500,9.840525390625,-0.3630228042602539,0.1877923607826233,0.186954528093338
1765009595215525400,9.850525390625,-1.018397331237793,0.16961520910263062,0.34390610456466675
1765009595225525500,9.860525390625,-1.4309921264648438,0.15837961435317993,0.43927615880966187
1765009595235525400,9.870525390625,-1.703023910522461,0.21620917320251465,0.5091720819473267
1765009595245525500,9.880525390625,-1.9280457496643066,0.2841925621032715,0.5188554525375366
1765009595255525400,9.890525390625,-1.9427967071533203,0.27890050411224365,0.41250473260879517
1765009595265525500,9.900525390625,-1.6609258651733398,0.18214881420135498,0.22505207359790802
1765009595275525400,9.910525390625,-1.1384782791137695,0.06980955600738525,0.042656466364860535
1765009595285525500,9.920525390625,-0.6647148132324219,-0.056189894676208496,-0.05135466158390045
1765009595295525400,9.930525390625,-0.3243436813354492,-0.17727720737457275,-0.09881105273962021
1765009595305525500,9.940525390625,-0.03464317321777344,-0.2762450575828552,-0.0412377193570137
1765009595315525400,9.950525390625,0.18198680877685547,-0.33918237686157227,0.0305783674120903
1765009595325525500,9.960525390625,0.33221435546875,-0.3762819468975067,0.08076602220535278
1765009595335525400,9.970525390625,0.37512779235839844,-0.3837939500808716,0.10648038238286972
1765009595345525500,9.980525390625,0.33728981018066406,-0.3543381989002228,0.0561223030090332
1765009595355525400,9.990525390625,0.19348526000976562,-0.3484805226325989,-0.04296441376209259
1765009595365525500,10.000525390625,0.013188362121582031,-0.2874907851219177,-0.1245032325387001
1765009595375525400,10.010525390625,-0.05223655700683594,-0.17631953954696655,-0.16990935802459717
1765009595385525500,10.020525390625,0.011529922485351562,-0.047863125801086426,-0.17200662195682526
1765009595395525400,10.030525390625,0.05109119415283203,0.043402791023254395,-0.14989343285560608
1765009595405525500,10.040525390625,-0.013034820556640625,0.09330505132675171,-0.07779975980520248
1765009595415525400,10.050525390625,-0.10272026062011719,0.11804509162902832,-0.025506392121315002
1765009595425525500,10.060525390625,-0.22686004638671875,0.11907351016998291,0.022363528609275818
1765009595435525400,10.070525390625,-0.35560035705566406,0.1710945963859558,0.05432449281215668
1765009595445525500,10.080525390625,-0.5236234664916992,0.24764233827590942,0.0478488951921463
1765009595455525400,10.090525390625,-0.7077398300170898,0.3105018138885498,0.0020947009325027466
1765009595465525500,10.100525390625,-0.8804264068603516,0.3004775047302246,-0.05432195961475372
1765009595475525400,10.110525390625,-1.0380315780639648,0.24682927131652832,-0.03126201033592224
1765009595485525500,10.120525390625,-1.114701271057129,0.23104429244995117,0.014786943793296814
1765009595495525400,10.130525390625,-1.0328845977783203,0.2784664034843445,0.025678858160972595
1765009595505525500,10.140525390625,-0.913050651550293,0.27933770418167114,0.01568824052810669
1765009595515525400,10.150525390625,-0.7399578094482422,0.21304851770401,-0.05593404173851013
1765009595525525500,10.160525390625,-0.5336322784423828,0.17290407419204712,-0.1793658435344696
1765009595535525400,10.170525390625,-0.3169822692871094,0.0825003981590271,-0.23861880600452423
1765009595545525500,10.180525390625,-0.1315479278564453,0.03599923849105835,-0.32636958360671997
1765009595555525400,10.190525390625,0.005938529968261719,-0.02711629867553711,-0.32873615622520447
1765009595565525500,10.200525390625,0.1154470443725586,-0.03541833162307739,-0.20180489122867584
1765009595575525400,10.210525390625,0.1619892120361328,-0.04245954751968384,-0.0428926944732666
1765009595585525500,10.220525390625,0.23801326751708984,-0.08791416883468628,0.1143941879272461
1765009595595525400,10.230525390625,0.34813594818115234,-0.09091699123382568,0.1489781141281128
1765009595605525500,10.240525390625,0.13251209259033203,-0.036890506744384766,0.07208526134490967
1765009595615525400,10.250525390625,0.12880897521972656,-0.05244135856628418,0.04789692163467407
1765009595625525500,10.260525390625,0.12391948699951172,-0.14414167404174805,0.02340066432952881
1765009595635525400,10.270525390625,-0.03360462188720703,-0.17789405584335327,0.0845806896686554
1765009595645525500,10.280525390625,-0.0763092041015625,-0.10664397478103638,0.1222287118434906
1765009595655525400,10.290525390625,-0.013872146606445312,0.004635155200958252,0.09827736020088196
1765009595665525500,10.300525390625,0.36020565032958984,0.10378855466842651,0.04301333427429199
1765009595675525400,10.310525390625,0.6523590087890625,0.25490665435791016,0.17296329140663147
1765009595685525500,10.320525390625,0.7113285064697266,0.2836570739746094,0.23180115222930908
1765009595695525400,10.330525390625,0.5792465209960938,0.166792094707489,0.16066420078277588
1765009595705525500,10.340525390625,0.4579133987426758,0.0076299309730529785,0.04261013865470886
1765009595715525400,10.350525390625,0.32253456115722656,-0.11475622653961182,-0.07892146706581116
1765009595725525500,10.360525390625,0.26587486267089844,-0.06835818290710449,-0.08146144449710846
1765009595735525400,10.370525390625,0.2635841369628906,0.1257716417312622,0.010707288980484009
1765009595745525500,10.380525390625,0.05991077423095703,0.294808030128479,0.10715457797050476
1765009595755525400,10.390525390625,-0.2348003387451172,0.3855297565460205,0.10022158920764923
1765009595765525500,10.400525390625,-0.6969175338745117,0.3664681911468506,-0.05741003155708313
1765009595775525400,10.410525390625,-1.2217140197753906,0.22560763359069824,-0.25358855724334717
1765009595785525500,10.420525390625,-1.5605363845825195,0.10663235187530518,-0.45316481590270996
1765009595795525400,10.430525390625,-1.3307886123657227,0.0851137638092041,-0.5353686213493347
1765009595805525500,10.440525390625,-0.9222583770751953,0.12422704696655273,-0.5088292360305786
1765009595815525400,10.450525390625,-0.9266853332519531,0.11177170276641846,-0.4660821557044983
1765009595825525500,10.460525390625,-0.817408561706543,0.08460795879364014,-0.4402207136154175
1765009595835525400,10.470525390625,-0.6519985198974609,0.0312504768371582,-0.35531172156333923
1765009595845525500,10.480525390625,-0.5267066955566406,0.0009750127792358398,-0.19918292760849
1765009595855525400,10.490525390625,-0.4657011032104492,-0.038779497146606445,-0.061789076775312424
1765009595865525500,10.500525390625,-0.567662239074707,-0.05829501152038574,0.07287391275167465
1765009595875525400,10.510525390625,-0.6526098251342773,-0.0950462818145752,0.18163403868675232
1765009595885525500,10.520525390625,-0.7321863174438477,-0.15204346179962158,0.27119016647338867
1765009595895525400,10.530525390625,-0.6389703750610352,-0.27030622959136963,0.288486510515213
1765009595905525500,10.540525390625,-0.044506072998046875,-0.33583390712738037,0.25834545493125916
1765009595915525400,10.550525390625,0.36396121978759766,-0.35504716634750366,0.35117197036743164
1765009595925525500,10.560525390625,0.6867341995239258,-0.36550629138946533,0.3974292278289795
1765009595935525400,10.570525390625,1.030843734741211,-0.38945281505584717,0.38623160123825073
1765009595945525500,10.580525390625,0.878631591796875,-0.5021224021911621,0.40689826011657715
1765009595955525400,10.590525390625,0.8714141845703125,-0.649709165096283,0.11568583548069
1765009595965525500,10.600525390625,0.960906982421875,-0.7068479657173157,-0.18813291192054749
1765009595975525400,10.610525390625,0.9648656845092773,-0.5989317893981934,-0.2939710021018982
1765009595985525500,10.620525390625,1.2903156280517578,-0.37662190198898315,-0.3009207546710968
1765009595995525400,10.630525390625,1.4452991485595703,-0.04048919677734375,-0.09436006844043732
1765009596005525500,10.640525390625,1.3085212707519531,0.1783052682876587,0.12086643278598785
1765009596015525400,10.650525390625,1.129307746887207,0.22505724430084229,0.16288556158542633
1765009596025525500,10.660525390625,0.9979848861694336,0.2047029733657837,0.16590143740177155
1765009596035525400,10.670525390625,0.8773975372314453,0.16343164443969727,0.078356072306633
1765009596045525500,10.680525390625,0.6250934600830078,0.20732474327087402,-0.001971110701560974
1765009596055525400,10.690525390625,0.3673696517944336,0.3314908742904663,0.01180197298526764
1765009596065525500,10.700525390625,-0.02310943603515625,0.3645033836364746,-0.05591002106666565
1765009596075525400,10.710525390625,-0.32510852813720703,0.4037916660308838,-0.08562366664409637
1765009596085525500,10.720525390625,-0.4102210998535156,0.36228692531585693,0.011386960744857788
1765009596095525400,10.730525390625,-0.4075136184692383,0.2933948040008545,0.09189891815185547
1765009596105525500,10.740525390625,-0.4411754608154297,0.33964240550994873,0.20095086097717285
1765009596115525400,10.750525390625,-0.6683082580566406,0.3223012685775757,0.25373274087905884
1765009596125525500,10.760525390625,-0.8134822845458984,0.27079832553863525,0.18839305639266968
1765009596135525400,10.770525390625,-0.7035760879516602,0.17551803588867188,0.12078779935836792
1765009596145525500,10.780525390625,-0.6400384902954102,0.005414009094238281,0.10817888379096985
1765009596155525400,10.790525390625,-0.46432018280029297,-0.2062680721282959,0.12790387868881226
1765009596165525500,10.800525390625,-0.15207767486572266,-0.3255190849304199,0.19901630282402039
1765009596175525400,10.810525390625,0.1332559585571289,-0.32775163650512695,0.2900077700614929
1765009596185525500,10.820525390625,-0.062041282653808594,-0.23290562629699707,0.22265560925006866
1765009596195525400,10.830525390625,-0.22008037567138672,-0.17983579635620117,0.041658803820610046
1765009596205525500,10.840525390625,-0.11209487915039062,-0.09225243330001831,-0.0982479676604271
1765009596215525400,10.850525390625,0.0739583969116211,-0.08182692527770996,-0.16617043316364288
1765009596225525500,10.860525390625,0.17546653747558594,-0.19147402048110962,-0.11051508784294128
1765009596235525400,10.870525390625,0.13875865936279297,-0.2704661786556244,-0.03652232885360718
1765009596245525500,10.880525390625,-0.04584312438964844,-0.34157270193099976,-0.07860717922449112
1765009596255525400,10.890525390625,-0.06904029846191406,-0.34045517444610596,-0.06191478669643402
1765009596265525500,10.900525390625,0.07086944580078125,-0.20518261194229126,-0.035614579916000366
1765009596275525400,10.910525390625,0.07094383239746094,-0.021762192249298096,0.04957548528909683
1765009596285525500,10.920525390625,0.049994468688964844,0.11640006303787231,0.019808173179626465
1765009596295525400,10.930525390625,-0.06433582305908203,0.15094786882400513,-0.06715761125087738
1765009596305525500,10.940525390625,-0.17081451416015625,0.06308084726333618,-0.08911142498254776
1765009596315525400,10.950525390625,-0.31208133697509766,-0.0004737973213195801,-0.11704057455062866
1765009596325525500,10.960525390625,-0.3688926696777344,-0.07506591081619263,-0.17344939708709717
1765009596335525400,10.970525390625,-0.20803451538085938,-0.15990862250328064,-0.2832697331905365
1765009596345525500,10.980525390625,0.03007030487060547,-0.015135884284973145,-0.33598488569259644
1765009596355525400,10.990525390625,0.9460697174072266,-0.08574596047401428,-0.5000364780426025
1765009596365525500,11.000525390625,3.515054702758789,0.5734681487083435,-0.46777328848838806
1765009596375525400,11.010525390625,3.785289764404297,0.6668384671211243,0.05620533972978592
1765009596385525500,11.020525390625,2.1931591033935547,-0.03087693452835083,0.09048575162887573
1765009596395525400,11.030525390625,0.7896900177001953,-0.41206151247024536,-0.4013804793357849
1765009596405525500,11.040525390625,0.3709840774536133,-0.1824074685573578,-0.6127710342407227
1765009596415525400,11.050525390625,0.22580432891845703,0.16872328519821167,-0.3202953338623047
1765009596425525500,11.060525390625,-0.08963489532470703,0.09854435920715332,-0.02649388276040554
1765009596435525400,11.070525390625,-0.5953874588012695,-0.1288154125213623,0.25152668356895447
1765009596445525500,11.080525390625,-1.0827207565307617,-0.28177106380462646,0.5360217690467834
1765009596455525400,11.090525390625,-1.1696405410766602,-0.2753255367279053,0.5686435699462891
1765009596465525500,11.100525390625,-1.0343618392944336,-0.10063344240188599,0.33419424295425415
1765009596475525400,11.110525390625,-0.6676254272460938,-0.026773512363433838,0.1580405980348587
1765009596485525500,11.120525390625,-0.39411449432373047,-0.03059673309326172,0.11255614459514618
1765009596495525400,11.130525390625,-0.19237136840820312,-0.0016134381294250488,0.1547241061925888
1765009596505525500,11.140525390625,-0.022777557373046875,0.06734681129455566,0.1520807147026062
1765009596515525400,11.150525390625,0.01774883270263672,0.02519392967224121,0.13037917017936707
1765009596525525500,11.160525390625,0.0019044876098632812,-0.006302177906036377,0.1556839793920517
1765009596535525400,11.170525390625,0.09270381927490234,-0.05875694751739502,0.21752889454364777
1765009596545525500,11.180525390625,0.27080821990966797,-0.06467592716217041,0.1741495430469513
1765009596555525400,11.190525390625,0.31951427459716797,-0.05698084831237793,0.03885999321937561
1765009596565525500,11.200525390625,0.24287128448486328,-0.14682352542877197,-0.07591726630926132
1765009596575525400,11.210525390625,0.24488449096679688,-0.21727067232131958,-0.13090980052947998
1765009596585525500,11.220525390625,0.31350231170654297,-0.14262336492538452,-0.1782088279724121
1765009596595525400,11.230525390625,0.30948638916015625,-0.09384644031524658,-0.17753733694553375
1765009596605525500,11.240525390625,0.23105812072753906,-0.08021992444992065,-0.13799691200256348
1765009596615525400,11.250525390625,0.10552501678466797,-0.03626739978790283,-0.05224771797657013
1765009596625525500,11.260525390625,-0.030266761779785156,-0.014579355716705322,-0.07749667763710022
1765009596635525400,11.270525390625,-0.014706611633300781,0.02232229709625244,-0.15746596455574036
1765009596645525500,11.280525390625,0.08058452606201172,0.17622476816177368,-0.21593111753463745
1765009596655525400,11.290525390625,0.12360954284667969,0.1307726502418518,-0.2433951199054718
1765009596665525500,11.300525390625,0.17327117919921875,0.05514407157897949,-0.16118347644805908
1765009596675525400,11.310525390625,0.2795257568359375,0.007765352725982666,-0.04689176380634308
1765009596685525500,11.320525390625,0.25728511810302734,0.04448199272155762,-0.002560853958129883
1765009596695525400,11.330525390625,0.25849437713623047,0.02742248773574829,-0.0054881274700164795
1765009596705525500,11.340525390625,0.16040515899658203,-0.02145940065383911,0.020682789385318756
1765009596715525400,11.350525390625,0.012866973876953125,-0.11811321973800659,-0.005912378430366516
1765009596725525500,11.360525390625,0.08369827270507812,-0.12636396288871765,-0.03791685402393341
1765009596735525400,11.370525390625,0.27932262420654297,-0.04846745729446411,-0.0295092910528183
1765009596745525500,11.380525390625,0.3420276641845703,-0.10130053758621216,-0.06858894228935242
1765009596755525400,11.390525390625,0.2599830627441406,-0.09314703941345215,-0.06406201422214508
1765009596765525500,11.400525390625,0.08857440948486328,-0.037594377994537354,-0.0730409026145935
1765009596775525400,11.410525390625,-0.0031538009643554688,0.009168505668640137,-0.05523774027824402
1765009596785525500,11.420525390625,-0.08765983581542969,0.031522274017333984,-0.04026392102241516
1765009596795525400,11.430525390625,-0.049979209899902344,0.008984506130218506,-0.0018575191497802734
1765009596805525500,11.440525390625,-0.0211639404296875,0.013752520084381104,0.030842505395412445
1765009596815525400,11.450525390625,0.013865470886230469,0.04532283544540405,0.009989500045776367
1765009596825525500,11.460525390625,0.029438018798828125,0.0155564546585083,-0.049998216331005096
1765009596835525400,11.470525390625,0.03160858154296875,0.009903311729431152,-0.05058883875608444
1765009596845525500,11.480525390625,0.028143882751464844,0.0058512091636657715,-0.04777047783136368
1765009596855525400,11.490525390625,0.0035552978515625,-0.08313596248626709,-0.06675233691930771
1765009596865525500,11.500525390625,0.05225563049316406,-0.03188258409500122,-0.05387859046459198
1765009596875525400,11.510525390625,0.1403331756591797,-0.0021119117736816406,-0.009803950786590576
1765009596885525500,11.520525390625,0.1977090835571289,-0.025829851627349854,-0.021464288234710693
1765009596895525400,11.530525390625,0.21169281005859375,-0.0335274338722229,0.009034007787704468
1765009596905525500,11.540525390625,0.1743144989013672,-0.029771506786346436,-0.00029600411653518677
1765009596915525400,11.550525390625,0.05340576171875,-0.015302658081054688,0.049200404435396194
1765009596925525500,11.560525390625,0.0006551742553710938,-0.0030854344367980957,0.09461026638746262
1765009596935525400,11.570525390625,-0.08477210998535156,-0.0019474625587463379,0.10914691537618637
1765009596945525500,11.580525390625,-0.18214988708496094,0.02737736701965332,0.09665925800800323
1765009596955525400,11.590525390625,-0.25042152404785156,0.04140251874923706,0.04405371844768524
1765009596965525500,11.600525390625,-0.14228248596191406,0.0333942174911499,-0.00007909536361694336
1765009596975525400,11.610525390625,0.01707744598388672,0.04305839538574219,0.004318512976169586
1765009596985525500,11.620525390625,0.1524190902709961,0.03534501791000366,0.007742919027805328
1765009596995525400,11.630525390625,0.13091754913330078,0.015394866466522217,-0.007505014538764954
1765009597005525500,11.640525390625,0.1279430389404297,-0.003548145294189453,-0.032101109623909
1765009597015525400,11.650525390625,0.13402271270751953,-0.03195375204086304,-0.03976796567440033
1765009597025525500,11.660525390625,0.10106372833251953,-0.024258196353912354,-0.048787325620651245
1765009597035525400,11.670525390625,0.08335113525390625,-0.004026651382446289,-0.015574507415294647
1765009597045525500,11.680525390625,0.058478355407714844,-0.056233227252960205,-0.057289376854896545
1765009597055525400,11.690525390625,0.056435585021972656,-0.06566005945205688,-0.09794500470161438
1765009597065525500,11.700525390625,0.0658121109008789,-0.06563073396682739,-0.0776495486497879
1765009597075525400,11.710525390625,0.008316993713378906,-0.04586172103881836,-0.03293999284505844
1765009597085525500,11.720525390625,-0.0033779144287109375,-0.04282611608505249,0.02437790110707283
1765009597095525400,11.730525390625,0.0037603378295898438,-0.03733384609222412,0.05197657644748688
1765009597105525500,11.740525390625,0.0004901885986328125,-0.004947960376739502,0.052402809262275696
1765009597115525400,11.750525390625,0.013458251953125,0.009658634662628174,0.06312324106693268
1765009597125525500,11.760525390625,0.12067222595214844,0.06333225965499878,0.04194838926196098
1765009597135525400,11.770525390625,0.17232608795166016,0.03130543231964111,-0.032031647861003876
1765009597145525500,11.780525390625,0.16624832153320312,0.023127079010009766,-0.06189064681529999
1765009597155525400,11.790525390625,0.10537052154541016,0.025260865688323975,-0.05982143431901932
1765009597165525500,11.800525390625,0.04342174530029297,-0.009803235530853271,-0.033731475472450256
1765009597175525400,11.810525390625,-0.04164695739746094,-0.017375588417053223,-0.006576426327228546
1765009597185525500,11.820525390625,-0.10802268981933594,-0.030195534229278564,0.03622575104236603
1765009597195525400,11.830525390625,-0.09073162078857422,-0.01837974786758423,0.04302552342414856
1765009597205525500,11.840525390625,-0.015911102294921875,-0.015778183937072754,0.008576154708862305
1765009597215525400,11.850525390625,0.05677032470703125,0.026116609573364258,-0.01931677758693695
1765009597225525500,11.860525390625,0.057084083557128906,-0.00585561990737915,-0.05379777401685715
1765009597235525400,11.870525390625,0.1157979965209961,-0.048058509826660156,-0.04182667285203934
1765009597245525500,11.880525390625,0.14226722717285156,-0.003736555576324463,0.005150817334651947
1765009597255525400,11.890525390625,0.09805011749267578,-0.051800310611724854,-0.009134933352470398
1765009597265525500,11.900525390625,0.01476287841796875,-0.029586076736450195,0.0014507323503494263
1765009597275525400,11.910525390625,0.03292655944824219,0.01166445016860962,-0.010399870574474335
1765009597285525500,11.920525390625,0.0451507568359375,-0.014720797538757324,-0.03272419422864914
1765009597295525400,11.930525390625,0.035137176513671875,-0.008581936359405518,-0.023387201130390167
1765009597305525500,11.940525390625,-0.00055694580078125,-0.029576599597930908,0.008653365075588226
1765009597315525400,11.950525390625,-0.012727737426757812,-0.04733860492706299,0.000630989670753479
1765009597325525500,11.960525390625,0.02840709686279297,-0.04270219802856445,-0.02095475047826767
1765009597335525400,11.970525390625,0.06308937072753906,-0.00728154182434082,-0.04289373755455017
1765009597345525500,11.980525390625,0.057247161865234375,0.014403462409973145,-0.028936482965946198
1765009597355525400,11.990525390625,0.11155033111572266,0.02318727970123291,-0.01638089120388031
1765009597365525500,12.000525390625,0.1257638931274414,0.021043479442596436,-0.010520249605178833
1765009597375525400,12.010525390625,0.09411048889160156,0.019818246364593506,0.00391291081905365
1765009597385525500,12.020525390625,0.027695655822753906,0.018482863903045654,0.042108580470085144
1765009597395525400,12.030525390625,-0.022475242614746094,-0.011077404022216797,0.03114841878414154
1765009597405525500,12.040525390625,-0.11299419403076172,-0.051865577697753906,-0.005364954471588135
1765009597415525400,12.050525390625,-0.10734367370605469,-0.022433757781982422,0.011562012135982513
1765009597425525500,12.060525390625,-0.0636444091796875,-0.013725757598876953,0.040637340396642685
1765009597435525400,12.070525390625,-0.030991554260253906,-0.016570448875427246,0.04695341736078262
1765009597445525500,12.080525390625,-0.03142356872558594,-0.019363820552825928,0.022259585559368134
1765009597455525400,12.090525390625,-0.0056438446044921875,-0.006056427955627441,-0.01146918535232544
1765009597465525500,12.100525390625,0.09985637664794922,0.009373486042022705,-0.014817401766777039
1765009597475525400,12.110525390625,0.17632484436035156,0.012583136558532715,-0.042945973575115204
1765009597485525500,12.120525390625,0.18303585052490234,-0.00962972640991211,-0.04350322484970093
1765009597495525400,12.130525390625,0.07526206970214844,-0.004605889320373535,-0.0177362859249115
1765009597505525500,12.140525390625,-0.0017118453979492188,0.015452146530151367,0.012633375823497772
1765009597515525400,12.150525390625,-0.046042442321777344,-0.014892518520355225,0.009844779968261719
1765009597525525500,12.160525390625,-0.1013345718383789,-0.012904345989227295,-0.008068636059761047
1765009597535525400,12.170525390625,-0.06204032897949219,-0.035823702812194824,-0.05075351893901825
1765009597545525500,12.180525390625,0.06324195861816406,0.006306588649749756,-0.0012716054916381836
1765009597555525400,12.190525390625,0.07980537414550781,0.027604341506958008,0.009771816432476044
1765009597565525500,12.200525390625,0.0366363525390625,-0.030106067657470703,-0.009389132261276245
1765009597575525400,12.210525390625,0.0300140380859375,-0.04287654161453247,0.01257779449224472
1765009597585525500,12.220525390625,0.03359794616699219,-0.04914671182632446,0.012100830674171448
1765009597595525400,12.230525390625,-0.08285045623779297,-0.062968909740448,-0.025961488485336304
1765009597605525500,12.240525390625,-0.1284799575805664,0.005061924457550049,-0.023210249841213226
1765009597615525400,12.250525390625,-0.0030908584594726562,0.010335028171539307,-0.030802570283412933
1765009597625525500,12.260525390625,0.12015628814697266,0.020305752754211426,-0.023623794317245483
1765009597635525400,12.270525390625,0.13053035736083984,-0.018569350242614746,-0.009239628911018372
1765009597645525500,12.280525390625,0.04864025115966797,-0.01528632640838623,0.014919251203536987
1765009597655525400,12.290525390625,-0.0017442703247070312,-0.01113128662109375,0.03516758605837822
1765009597665525500,12.300525390625,-0.008199691772460938,-0.03766590356826782,0.019163653254508972
1765009597675525400,12.310525390625,-0.024728775024414062,0.009297788143157959,0.006279326975345612
1765009597685525500,12.320525390625,0.029860496520996094,0.0165594220161438,-0.026450932025909424
1765009597695525400,12.330525390625,0.09696006774902344,0.023855745792388916,-0.00662897527217865
1765009597705525500,12.340525390625,0.09724235534667969,0.002131521701812744,0.0044446587562561035
1765009597715525400,12.350525390625,0.014129638671875,-0.0035085678100585938,0.011231712996959686
1765009597725525500,12.360525390625,-0.05019187927246094,-0.014620363712310791,0.014194022864103317
1765009597735525400,12.370525390625,-0.038168907165527344,-0.009114742279052734,0.03393666073679924
1765009597745525500,12.380525390625,-0.06573772430419922,-0.001467585563659668,0.017507627606391907
1765009597755525400,12.390525390625,-0.049282073974609375,-0.047576189041137695,-0.009480461478233337
1765009597765525500,12.400525390625,-0.05059528350830078,0.00189894437789917,-0.016516655683517456
1765009597775525400,12.410525390625,0.03924274444580078,0.05561321973800659,-0.007370278239250183
1765009597785525500,12.420525390625,0.06513595581054688,0.013708055019378662,-0.03277871012687683
1765009597795525400,12.430525390625,0.09100532531738281,0.0023803114891052246,-0.00609811395406723
1765009597805525500,12.440525390625,0.03413200378417969,-0.013879358768463135,-0.012874960899353027
1765009597815525400,12.450525390625,0.019372940063476562,0.019343852996826172,0.011681824922561646
1765009597825525500,12.460525390625,-0.013582229614257812,-0.004716098308563232,0.015577763319015503
1765009597835525400,12.470525390625,-0.05337238311767578,-0.006889224052429199,0.020049847662448883
1765009597845525500,12.480525390625,-0.06152153015136719,-0.01382666826248169,0.03069373220205307
1765009597855525400,12.490525390625,-0.044330596923828125,0.008578121662139893,0.015423335134983063
1765009597865525500,12.500525390625,-0.005400657653808594,0.02824842929840088,0.009861104190349579
1765009597875525400,12.510525390625,0.04180431365966797,-0.029658079147338867,-0.019398361444473267
1765009597885525500,12.520525390625,0.026065826416015625,-0.009576916694641113,-0.021112151443958282
1765009597895525400,12.530525390625,0.06078624725341797,-0.0038319826126098633,-0.028867237269878387
1765009597905525500,12.540525390625,0.0858154296875,-0.01622253656387329,-0.049748294055461884
1765009597915525400,12.550525390625,0.0582122802734375,-0.023320376873016357,-0.05670539289712906
1765009597925525500,12.560525390625,0.019083023071289062,-0.011796891689300537,-0.04727315157651901
1765009597935525400,12.570525390625,-0.009214401245117188,-0.029657423496246338,-0.04623957723379135
1765009597945525500,12.580525390625,-0.005413055419921875,-0.008323490619659424,-0.01967637985944748
1765009597955525400,12.590525390625,0.0334320068359375,0.0039078593254089355,-0.007805787026882172
1765009597965525500,12.600525390625,0.08695411682128906,0.005245983600616455,0.013909906148910522
1765009597975525400,12.610525390625,0.09135246276855469,-0.00241851806640625,0.02186320722103119
